subject,"group","blockcode","blocknum","trialcode","trialnum","nrDigits","trial","currentLevel","countTrialsCurrentLevel","number1","number2","number3","number4","number5","solution","response","correct","rt","changeLevel","countLevelChange","countLevel1","countcorrectLevel1","countLevel2","countcorrectLevel2","countLevel3","countcorrectLevel3","countLevel4","countcorrectLevel4","countLevel5","countcorrectLevel5"
94,"2","met",2,"response_response",4,4,1,1,1,1,3,3,2,0,9,9,1,4153,0,1,1,1,0,0,0,0,0,0,0,0
94,"2","met",2,"response_response",7,4,2,1,2,2,1,1,3,0,7,7,1,5494,0,1,2,2,0,0,0,0,0,0,0,0
94,"2","met",2,"response_response",10,4,3,1,3,2,2,1,3,0,8,8,1,3539,0,1,3,3,0,0,0,0,0,0,0,0
94,"2","met",2,"response_response",13,4,4,1,4,3,3,3,2,0,11,11,1,3295,0,1,4,4,0,0,0,0,0,0,0,0
94,"2","met",2,"response_response",16,4,5,1,5,1,2,2,3,0,8,8,1,3724,0,1,5,5,0,0,0,0,0,0,0,0
94,"2","met",2,"response_response",20,4,6,2,1,4,6,8,7,0,25,25,1,3933,0,2,5,5,1,1,0,0,0,0,0,0
94,"2","met",2,"response_response",23,4,7,2,2,8,5,8,3,0,24,24,1,3548,0,2,5,5,2,2,0,0,0,0,0,0
94,"2","met",2,"response_response",26,4,8,2,3,8,7,3,3,0,21,21,1,3142,0,2,5,5,3,3,0,0,0,0,0,0
94,"2","met",2,"response_response",29,4,9,2,4,7,9,8,7,0,31,31,1,5995,0,2,5,5,4,4,0,0,0,0,0,0
94,"2","met",2,"response_response",32,4,10,2,5,7,7,3,5,0,22,22,1,3499,0,2,5,5,5,5,0,0,0,0,0,0
94,"2","met",2,"response_response",36,4,11,3,1,8,15,10,12,0,45,40,0,7809,0,3,5,5,5,5,1,0,0,0,0,0
94,"2","met",2,"response_response",39,4,12,3,2,12,9,13,13,0,47,47,1,8415,0,3,5,5,5,5,2,1,0,0,0,0
94,"2","met",2,"response_response",42,4,13,3,3,7,7,13,7,0,34,34,1,3359,0,3,5,5,5,5,3,2,0,0,0,0
94,"2","met",2,"response_response",45,4,14,3,4,12,15,12,11,0,50,50,1,5740,0,3,5,5,5,5,4,3,0,0,0,0
94,"2","met",2,"response_response",48,4,15,3,5,10,8,9,11,0,38,40,0,4651,0,3,5,5,5,5,5,3,0,0,0,0
94,"2","met",2,"response_response",52,4,16,4,1,22,16,18,22,0,78,7,0,10300,0,4,5,5,5,5,5,3,1,0,0,0
94,"2","met",2,"response_response",55,4,17,4,2,24,22,7,13,0,66,66,1,9553,0,4,5,5,5,5,5,3,2,1,0,0
94,"2","met",2,"response_response",58,4,18,4,3,21,10,18,11,0,60,50,0,9091,0,4,5,5,5,5,5,3,3,1,0,0
94,"2","met",2,"response_response",61,4,19,4,4,21,12,20,23,0,76,76,1,10300,0,4,5,5,5,5,5,3,4,2,0,0
94,"2","met",2,"response_response",64,4,20,4,5,25,9,25,10,0,69,59,0,7072,0,4,5,5,5,5,5,3,5,2,0,0
94,"2","met",2,"response_response",68,4,21,5,1,23,27,21,18,0,89,79,0,10300,0,5,5,5,5,5,5,3,5,2,1,0
94,"2","met",2,"response_response",71,4,22,5,2,33,16,34,34,0,117,1,0,10300,0,5,5,5,5,5,5,3,5,2,2,0
94,"2","met",2,"response_response",74,4,23,5,3,19,19,26,32,0,96,NA,0,10300,0,5,5,5,5,5,5,3,5,2,3,0
94,"2","met",2,"response_response",77,4,24,5,4,32,10,32,35,0,109,9,0,10300,0,5,5,5,5,5,5,3,5,2,4,0
94,"2","met",2,"response_response",80,4,25,5,5,15,22,18,30,0,85,NA,0,10300,0,5,5,5,5,5,5,3,5,2,5,0
94,"2","met",2,"response_response",84,4,26,4,1,17,17,24,25,0,83,73,0,10300,0,6,5,5,5,5,5,3,6,2,5,0
94,"2","met",2,"response_response",87,4,27,4,2,11,14,24,22,0,71,71,1,6539,0,6,5,5,5,5,5,3,7,3,5,0
94,"2","met",2,"response_response",90,4,28,4,3,14,16,13,17,0,60,60,1,3577,0,6,5,5,5,5,5,3,8,4,5,0
94,"2","met",2,"response_response",93,4,29,4,4,24,19,14,8,0,65,NA,0,8230,0,6,5,5,5,5,5,3,9,4,5,0
94,"2","met",2,"response_response",96,4,30,4,5,22,17,24,17,0,80,NA,0,10300,0,6,5,5,5,5,5,3,10,4,5,0
94,"2","met",2,"response_response",100,4,31,4,1,22,25,23,24,0,94,NA,0,10300,0,6,5,5,5,5,5,3,11,4,5,0
94,"2","met",2,"response_response",103,4,32,4,2,16,22,13,19,0,70,59,0,9605,0,6,5,5,5,5,5,3,12,4,5,0
94,"2","met",2,"response_response",106,4,33,4,3,7,14,10,11,0,42,42,1,3411,0,6,5,5,5,5,5,3,13,5,5,0
94,"2","met",2,"response_response",109,4,34,4,4,15,12,16,24,0,67,55,0,8760,0,6,5,5,5,5,5,3,14,5,5,0
94,"2","met",2,"response_response",112,4,35,4,5,7,15,23,8,0,53,53,1,5131,0,6,5,5,5,5,5,3,15,6,5,0
94,"2","met",2,"response_response",116,4,36,4,1,14,9,10,14,0,47,57,0,6289,0,6,5,5,5,5,5,3,16,6,5,0
94,"2","met",2,"response_response",119,4,37,4,2,13,19,11,16,0,59,NA,0,10300,0,6,5,5,5,5,5,3,17,6,5,0
94,"2","met",2,"response_response",122,4,38,4,3,16,13,21,19,0,69,NA,0,4918,0,6,5,5,5,5,5,3,18,6,5,0
94,"2","met",2,"response_response",125,4,39,4,4,10,25,24,21,0,80,80,1,5845,0,6,5,5,5,5,5,3,19,7,5,0
94,"2","met",2,"response_response",128,4,40,4,5,23,24,8,14,0,69,NA,0,10300,0,6,5,5,5,5,5,3,20,7,5,0
94,"2","met",2,"response_response",132,4,41,5,1,16,10,8,10,0,44,44,1,5465,0,7,5,5,5,5,5,3,20,7,6,1
94,"2","met",2,"response_response",135,4,42,5,2,12,12,14,24,0,62,62,1,7010,0,7,5,5,5,5,5,3,20,7,7,2
94,"2","met",2,"response_response",138,4,43,5,3,17,14,35,27,0,93,88,0,8528,0,7,5,5,5,5,5,3,20,7,8,2
94,"2","met",2,"response_response",141,4,44,5,4,10,25,32,7,0,74,73,0,4744,0,7,5,5,5,5,5,3,20,7,9,2
94,"2","met",2,"response_response",144,4,45,5,5,9,30,17,15,0,71,71,1,10300,0,7,5,5,5,5,5,3,20,7,10,3
94,"2","met",2,"response_response",148,4,46,5,1,34,10,21,23,0,88,88,1,9869,0,7,5,5,5,5,5,3,20,7,11,4
94,"2","met",2,"response_response",151,4,47,5,2,18,12,31,17,0,78,78,1,5129,0,7,5,5,5,5,5,3,20,7,12,5
94,"2","met",2,"response_response",154,4,48,5,3,33,12,33,9,0,87,NA,0,10300,0,7,5,5,5,5,5,3,20,7,13,5
94,"2","met",2,"response_response",157,4,49,5,4,7,33,21,10,0,71,71,1,2867,0,7,5,5,5,5,5,3,20,7,14,6
94,"2","met",2,"response_response",160,4,50,5,5,13,25,20,15,0,73,73,1,6617,0,7,5,5,5,5,5,3,20,7,15,7
58,"2","met",2,"response_response",4,4,1,2,1,8,3,8,9,0,28,28,1,4774,0,1,0,0,1,1,0,0,0,0,0,0
58,"2","met",2,"response_response",7,4,2,2,2,4,6,7,3,0,20,20,1,3849,0,1,0,0,2,2,0,0,0,0,0,0
58,"2","met",2,"response_response",10,4,3,2,3,4,8,8,4,0,24,24,1,3358,0,1,0,0,3,3,0,0,0,0,0,0
58,"2","met",2,"response_response",13,4,4,2,4,7,9,3,6,0,25,25,1,2844,0,1,0,0,4,4,0,0,0,0,0,0
58,"2","met",2,"response_response",16,4,5,2,5,7,7,9,9,0,32,32,1,3714,0,1,0,0,5,5,0,0,0,0,0,0
58,"2","met",2,"response_response",20,4,6,3,1,12,8,15,8,0,43,42,0,4539,0,2,0,0,5,5,1,0,0,0,0,0
58,"2","met",2,"response_response",23,4,7,3,2,13,12,12,9,0,46,46,1,4747,0,2,0,0,5,5,2,1,0,0,0,0
58,"2","met",2,"response_response",26,4,8,3,3,7,14,14,8,0,43,43,1,4304,0,2,0,0,5,5,3,2,0,0,0,0
58,"2","met",2,"response_response",29,4,9,3,4,13,11,7,8,0,39,39,1,3536,0,2,0,0,5,5,4,3,0,0,0,0
58,"2","met",2,"response_response",32,4,10,3,5,14,8,14,7,0,43,43,1,4582,0,2,0,0,5,5,5,4,0,0,0,0
58,"2","met",2,"response_response",36,4,11,3,1,7,13,7,15,0,42,42,1,4688,0,2,0,0,5,5,6,5,0,0,0,0
58,"2","met",2,"response_response",39,4,12,3,2,9,7,9,10,0,35,35,1,3181,0,2,0,0,5,5,7,6,0,0,0,0
58,"2","met",2,"response_response",42,4,13,3,3,8,14,9,14,0,45,45,1,3302,0,2,0,0,5,5,8,7,0,0,0,0
58,"2","met",2,"response_response",45,4,14,3,4,10,14,11,12,0,47,47,1,3213,0,2,0,0,5,5,9,8,0,0,0,0
58,"2","met",2,"response_response",48,4,15,3,5,15,12,13,15,0,55,55,1,2980,0,2,0,0,5,5,10,9,0,0,0,0
58,"2","met",2,"response_response",52,4,16,4,1,13,17,12,8,0,50,50,1,3043,0,3,0,0,5,5,10,9,1,1,0,0
58,"2","met",2,"response_response",55,4,17,4,2,8,23,24,22,0,77,NA,0,10300,0,3,0,0,5,5,10,9,2,1,0,0
58,"2","met",2,"response_response",58,4,18,4,3,7,22,25,18,0,72,66,0,6629,1,3,0,0,5,5,10,9,3,1,0,0
58,"2","met",2,"response_response",62,4,19,3,1,14,7,7,9,0,37,37,1,3604,0,4,0,0,5,5,11,10,3,1,0,0
58,"2","met",2,"response_response",65,4,20,3,2,8,7,11,14,0,40,40,1,4147,0,4,0,0,5,5,12,11,3,1,0,0
58,"2","met",2,"response_response",68,4,21,3,3,12,9,15,9,0,45,45,1,6345,0,4,0,0,5,5,13,12,3,1,0,0
58,"2","met",2,"response_response",71,4,22,3,4,7,14,11,10,0,42,42,1,2862,0,4,0,0,5,5,14,13,3,1,0,0
58,"2","met",2,"response_response",74,4,23,3,5,11,7,12,11,0,41,41,1,3919,0,4,0,0,5,5,15,14,3,1,0,0
58,"2","met",2,"response_response",78,4,24,3,1,12,10,7,9,0,38,38,1,6159,0,4,0,0,5,5,16,15,3,1,0,0
58,"2","met",2,"response_response",81,4,25,3,2,8,11,14,11,0,44,34,0,4918,0,4,0,0,5,5,17,15,3,1,0,0
58,"2","met",2,"response_response",84,4,26,3,3,15,13,13,9,0,50,50,1,3392,0,4,0,0,5,5,18,16,3,1,0,0
58,"2","met",2,"response_response",87,4,27,3,4,11,14,12,10,0,47,46,0,2409,0,4,0,0,5,5,19,16,3,1,0,0
58,"2","met",2,"response_response",90,4,28,3,5,12,15,8,9,0,44,44,1,4852,0,4,0,0,5,5,20,17,3,1,0,0
58,"2","met",2,"response_response",94,4,29,3,1,14,8,9,14,0,45,45,1,4257,0,4,0,0,5,5,21,18,3,1,0,0
58,"2","met",2,"response_response",97,4,30,3,2,13,11,8,11,0,43,43,1,2825,0,4,0,0,5,5,22,19,3,1,0,0
58,"2","met",2,"response_response",100,4,31,3,3,8,9,8,11,0,36,36,1,4370,0,4,0,0,5,5,23,20,3,1,0,0
58,"2","met",2,"response_response",103,4,32,3,4,10,12,7,12,0,41,41,1,4174,0,4,0,0,5,5,24,21,3,1,0,0
58,"2","met",2,"response_response",106,4,33,3,5,12,10,8,9,0,39,39,1,1973,0,4,0,0,5,5,25,22,3,1,0,0
58,"2","met",2,"response_response",110,4,34,4,1,7,15,9,12,0,43,43,1,2518,0,5,0,0,5,5,25,22,4,2,0,0
58,"2","met",2,"response_response",113,4,35,4,2,21,8,15,25,0,69,69,1,4753,0,5,0,0,5,5,25,22,5,3,0,0
58,"2","met",2,"response_response",116,4,36,4,3,25,15,13,24,0,77,77,1,4756,0,5,0,0,5,5,25,22,6,4,0,0
58,"2","met",2,"response_response",119,4,37,4,4,11,16,22,15,0,64,64,1,6116,0,5,0,0,5,5,25,22,7,5,0,0
58,"2","met",2,"response_response",122,4,38,4,5,21,19,7,16,0,63,63,1,4055,0,5,0,0,5,5,25,22,8,6,0,0
58,"2","met",2,"response_response",126,4,39,4,1,21,14,15,21,0,71,71,1,3497,0,5,0,0,5,5,25,22,9,7,0,0
58,"2","met",2,"response_response",129,4,40,4,2,7,18,25,15,0,65,65,1,2577,0,5,0,0,5,5,25,22,10,8,0,0
58,"2","met",2,"response_response",132,4,41,4,3,11,13,14,8,0,46,46,1,2792,0,5,0,0,5,5,25,22,11,9,0,0
58,"2","met",2,"response_response",135,4,42,4,4,15,8,20,7,0,50,50,1,2500,0,5,0,0,5,5,25,22,12,10,0,0
58,"2","met",2,"response_response",138,4,43,4,5,24,11,11,7,0,53,NA,0,10300,0,5,0,0,5,5,25,22,13,10,0,0
58,"2","met",2,"response_response",142,4,44,4,1,11,10,12,24,0,57,45,0,8318,1,5,0,0,5,5,25,22,14,10,0,0
58,"2","met",2,"response_response",146,4,45,3,1,8,9,7,12,0,36,36,1,5126,0,6,0,0,5,5,26,23,14,10,0,0
58,"2","met",2,"response_response",149,4,46,3,2,15,8,8,7,0,38,38,1,2827,0,6,0,0,5,5,27,24,14,10,0,0
58,"2","met",2,"response_response",152,4,47,3,3,10,14,15,10,0,49,49,1,3420,0,6,0,0,5,5,28,25,14,10,0,0
58,"2","met",2,"response_response",155,4,48,3,4,10,13,8,8,0,39,39,1,5453,0,6,0,0,5,5,29,26,14,10,0,0
58,"2","met",2,"response_response",158,4,49,3,5,8,10,12,14,0,44,44,1,2207,0,6,0,0,5,5,30,27,14,10,0,0
58,"2","met",2,"response_response",162,4,50,3,1,8,10,14,8,0,40,40,1,4556,0,6,0,0,5,5,31,28,14,10,0,0
41,"1","met",2,"response_response",4,4,1,3,1,10,12,14,9,0,45,45,1,10300,0,1,0,0,0,0,1,1,0,0,0,0
41,"1","met",2,"response_response",7,4,2,3,2,14,12,9,10,0,45,45,1,4362,0,1,0,0,0,0,2,2,0,0,0,0
41,"1","met",2,"response_response",10,4,3,3,3,8,9,7,14,0,38,38,1,10300,0,1,0,0,0,0,3,3,0,0,0,0
41,"1","met",2,"response_response",13,4,4,3,4,8,9,8,10,0,35,35,1,10223,0,1,0,0,0,0,4,4,0,0,0,0
41,"1","met",2,"response_response",16,4,5,3,5,10,13,14,14,0,51,51,1,5895,0,1,0,0,0,0,5,5,0,0,0,0
41,"1","met",2,"response_response",20,4,6,4,1,22,22,8,9,0,61,61,1,9932,0,2,0,0,0,0,5,5,1,1,0,0
41,"1","met",2,"response_response",23,4,7,4,2,22,16,13,11,0,62,52,0,7112,0,2,0,0,0,0,5,5,2,1,0,0
41,"1","met",2,"response_response",26,4,8,4,3,13,22,13,25,0,73,73,1,10300,0,2,0,0,0,0,5,5,3,2,0,0
41,"1","met",2,"response_response",29,4,9,4,4,24,9,12,23,0,68,68,1,6335,0,2,0,0,0,0,5,5,4,3,0,0
41,"1","met",2,"response_response",32,4,10,4,5,20,22,14,23,0,79,79,1,8274,0,2,0,0,0,0,5,5,5,4,0,0
41,"1","met",2,"response_response",36,4,11,3,1,12,7,13,8,0,40,40,1,7937,0,3,0,0,0,0,6,6,5,4,0,0
41,"1","met",2,"response_response",39,4,12,3,2,12,7,11,11,0,41,41,1,5145,0,3,0,0,0,0,7,7,5,4,0,0
41,"1","met",2,"response_response",42,4,13,3,3,13,13,9,14,0,49,4,0,10300,0,3,0,0,0,0,8,7,5,4,0,0
41,"1","met",2,"response_response",45,4,14,3,4,10,14,8,15,0,47,4,0,10300,0,3,0,0,0,0,9,7,5,4,0,0
41,"1","met",2,"response_response",48,4,15,3,5,8,13,13,13,0,47,47,1,8296,0,3,0,0,0,0,10,8,5,4,0,0
41,"1","met",2,"response_response",52,4,16,5,1,18,31,9,32,0,90,70,0,10300,1,4,0,0,0,0,10,8,5,4,1,0
41,"1","met",2,"response_response",56,4,17,4,1,12,25,14,18,0,69,59,0,7168,0,5,0,0,0,0,10,8,6,4,1,0
41,"1","met",2,"response_response",59,4,18,4,2,16,14,11,12,0,53,53,1,4849,0,5,0,0,0,0,10,8,7,5,1,0
41,"1","met",2,"response_response",62,4,19,4,3,16,15,12,16,0,59,59,1,5478,0,5,0,0,0,0,10,8,8,6,1,0
41,"1","met",2,"response_response",65,4,20,4,4,17,23,16,7,0,63,53,0,6402,0,5,0,0,0,0,10,8,9,6,1,0
41,"1","met",2,"response_response",68,4,21,4,5,24,14,15,15,0,68,68,1,5461,0,5,0,0,0,0,10,8,10,7,1,0
41,"1","met",2,"response_response",72,4,22,4,1,24,20,25,17,0,86,86,1,9901,0,5,0,0,0,0,10,8,11,8,1,0
41,"1","met",2,"response_response",75,4,23,4,2,17,11,10,10,0,48,48,1,4915,0,5,0,0,0,0,10,8,12,9,1,0
41,"1","met",2,"response_response",78,4,24,4,3,10,8,7,11,0,36,36,1,4245,0,5,0,0,0,0,10,8,13,10,1,0
41,"1","met",2,"response_response",81,4,25,4,4,19,11,20,17,0,67,67,1,2933,0,5,0,0,0,0,10,8,14,11,1,0
41,"1","met",2,"response_response",84,4,26,4,5,17,15,7,16,0,55,55,1,4372,0,5,0,0,0,0,10,8,15,12,1,0
41,"1","met",2,"response_response",88,4,27,4,1,24,20,20,23,0,87,87,1,4956,0,5,0,0,0,0,10,8,16,13,1,0
41,"1","met",2,"response_response",91,4,28,4,2,10,19,14,15,0,58,58,1,10300,0,5,0,0,0,0,10,8,17,14,1,0
41,"1","met",2,"response_response",94,4,29,4,3,8,9,8,9,0,34,34,1,6505,0,5,0,0,0,0,10,8,18,15,1,0
41,"1","met",2,"response_response",97,4,30,4,4,19,15,15,14,0,63,63,1,6034,0,5,0,0,0,0,10,8,19,16,1,0
41,"1","met",2,"response_response",100,4,31,4,5,21,8,12,18,0,59,59,1,9658,0,5,0,0,0,0,10,8,20,17,1,0
41,"1","met",2,"response_response",104,4,32,4,1,24,11,10,23,0,68,68,1,6400,0,5,0,0,0,0,10,8,21,18,1,0
41,"1","met",2,"response_response",107,4,33,4,2,15,10,16,10,0,51,51,1,4914,0,5,0,0,0,0,10,8,22,19,1,0
41,"1","met",2,"response_response",110,4,34,4,3,25,8,14,9,0,56,56,1,4766,0,5,0,0,0,0,10,8,23,20,1,0
41,"1","met",2,"response_response",113,4,35,4,4,17,20,22,8,0,67,67,1,7849,0,5,0,0,0,0,10,8,24,21,1,0
41,"1","met",2,"response_response",116,4,36,4,5,11,14,16,12,0,53,53,1,7533,0,5,0,0,0,0,10,8,25,22,1,0
41,"1","met",2,"response_response",120,4,37,4,1,24,15,16,20,0,75,75,1,4729,0,5,0,0,0,0,10,8,26,23,1,0
41,"1","met",2,"response_response",123,4,38,4,2,7,19,7,21,0,54,54,1,4057,0,5,0,0,0,0,10,8,27,24,1,0
41,"1","met",2,"response_response",126,4,39,4,3,23,17,9,23,0,72,72,1,6828,0,5,0,0,0,0,10,8,28,25,1,0
41,"1","met",2,"response_response",129,4,40,4,4,20,16,23,20,0,79,79,1,5953,0,5,0,0,0,0,10,8,29,26,1,0
41,"1","met",2,"response_response",132,4,41,4,5,20,11,19,8,0,58,58,1,3840,0,5,0,0,0,0,10,8,30,27,1,0
41,"1","met",2,"response_response",136,4,42,4,1,9,9,10,15,0,43,43,1,5610,0,5,0,0,0,0,10,8,31,28,1,0
41,"1","met",2,"response_response",139,4,43,4,2,22,25,7,16,0,70,70,1,10300,0,5,0,0,0,0,10,8,32,29,1,0
41,"1","met",2,"response_response",142,4,44,4,3,9,20,21,8,0,58,58,1,3195,0,5,0,0,0,0,10,8,33,30,1,0
41,"1","met",2,"response_response",145,4,45,4,4,19,20,23,10,0,72,72,1,5746,0,5,0,0,0,0,10,8,34,31,1,0
41,"1","met",2,"response_response",148,4,46,4,5,7,12,19,14,0,52,52,1,10300,0,5,0,0,0,0,10,8,35,32,1,0
41,"1","met",2,"response_response",152,4,47,4,1,25,16,16,18,0,75,75,1,8172,0,5,0,0,0,0,10,8,36,33,1,0
41,"1","met",2,"response_response",155,4,48,4,2,23,8,23,14,0,68,68,1,7963,0,5,0,0,0,0,10,8,37,34,1,0
41,"1","met",2,"response_response",158,4,49,4,3,20,21,15,8,0,64,64,1,9145,0,5,0,0,0,0,10,8,38,35,1,0
41,"1","met",2,"response_response",161,4,50,4,4,8,14,7,11,0,40,NA,0,10300,0,5,0,0,0,0,10,8,39,35,1,0
20,"2","met",2,"response_response",4,4,1,2,1,7,4,8,7,0,26,26,1,4667,0,1,0,0,1,1,0,0,0,0,0,0
20,"2","met",2,"response_response",7,4,2,2,2,7,7,7,5,0,26,26,1,3143,0,1,0,0,2,2,0,0,0,0,0,0
20,"2","met",2,"response_response",10,4,3,2,3,9,4,6,6,0,25,25,1,3657,0,1,0,0,3,3,0,0,0,0,0,0
20,"2","met",2,"response_response",13,4,4,2,4,9,4,7,6,0,26,26,1,3663,0,1,0,0,4,4,0,0,0,0,0,0
20,"2","met",2,"response_response",16,4,5,2,5,9,4,6,3,0,22,21,0,5660,0,1,0,0,5,4,0,0,0,0,0,0
20,"2","met",2,"response_response",20,4,6,3,1,9,14,10,11,0,44,44,1,2846,0,2,0,0,5,4,1,1,0,0,0,0
20,"2","met",2,"response_response",23,4,7,3,2,12,10,10,10,0,42,42,1,2415,0,2,0,0,5,4,2,2,0,0,0,0
20,"2","met",2,"response_response",26,4,8,3,3,10,11,13,7,0,41,41,1,4740,0,2,0,0,5,4,3,3,0,0,0,0
20,"2","met",2,"response_response",29,4,9,3,4,10,14,7,12,0,43,43,1,5205,0,2,0,0,5,4,4,4,0,0,0,0
20,"2","met",2,"response_response",32,4,10,3,5,15,8,11,7,0,41,41,1,9111,0,2,0,0,5,4,5,5,0,0,0,0
20,"2","met",2,"response_response",36,4,11,1,1,2,3,3,1,0,9,9,1,2658,0,3,1,1,5,4,5,5,0,0,0,0
20,"2","met",2,"response_response",39,4,12,1,2,3,2,3,2,0,10,10,1,3388,1,3,2,2,5,4,5,5,0,0,0,0
20,"2","met",2,"response_response",43,4,13,4,1,7,9,16,9,0,41,41,1,10300,0,4,2,2,5,4,5,5,1,1,0,0
20,"2","met",2,"response_response",46,4,14,4,2,18,17,15,14,0,64,NA,0,10300,0,4,2,2,5,4,5,5,2,1,0,0
20,"2","met",2,"response_response",49,4,15,4,3,15,16,15,23,0,69,68,0,3866,0,4,2,2,5,4,5,5,3,1,0,0
20,"2","met",2,"response_response",52,4,16,4,4,14,17,19,22,0,72,72,1,7367,0,4,2,2,5,4,5,5,4,2,0,0
20,"2","met",2,"response_response",55,4,17,4,5,8,25,24,8,0,65,64,0,6691,0,4,2,2,5,4,5,5,5,2,0,0
20,"2","met",2,"response_response",59,4,18,2,1,3,9,5,8,0,25,25,1,5827,0,5,2,2,6,5,5,5,5,2,0,0
20,"2","met",2,"response_response",62,4,19,2,2,4,9,6,7,0,26,26,1,2433,0,5,2,2,7,6,5,5,5,2,0,0
20,"2","met",2,"response_response",65,4,20,2,3,6,5,5,4,0,20,20,1,1765,0,5,2,2,8,7,5,5,5,2,0,0
20,"2","met",2,"response_response",68,4,21,2,4,9,5,8,6,0,28,28,1,2227,0,5,2,2,9,8,5,5,5,2,0,0
20,"2","met",2,"response_response",71,4,22,2,5,8,9,6,7,0,30,30,1,1904,0,5,2,2,10,9,5,5,5,2,0,0
20,"2","met",2,"response_response",75,4,23,3,1,9,11,8,13,0,41,41,1,3947,0,6,2,2,10,9,6,6,5,2,0,0
20,"2","met",2,"response_response",78,4,24,3,2,7,13,8,14,0,42,42,1,3371,0,6,2,2,10,9,7,7,5,2,0,0
20,"2","met",2,"response_response",81,4,25,3,3,10,11,8,7,0,36,36,1,4655,0,6,2,2,10,9,8,8,5,2,0,0
20,"2","met",2,"response_response",84,4,26,3,4,8,9,14,8,0,39,39,1,6825,0,6,2,2,10,9,9,9,5,2,0,0
20,"2","met",2,"response_response",87,4,27,3,5,11,13,15,14,0,53,52,0,5034,0,6,2,2,10,9,10,9,5,2,0,0
20,"2","met",2,"response_response",91,4,28,2,1,9,3,3,8,0,23,23,1,2158,0,7,2,2,11,10,10,9,5,2,0,0
20,"2","met",2,"response_response",94,4,29,2,2,6,9,3,4,0,22,22,1,2772,0,7,2,2,12,11,10,9,5,2,0,0
20,"2","met",2,"response_response",97,4,30,2,3,4,6,9,6,0,25,25,1,4187,0,7,2,2,13,12,10,9,5,2,0,0
20,"2","met",2,"response_response",100,4,31,2,4,7,7,3,5,0,22,22,1,2697,0,7,2,2,14,13,10,9,5,2,0,0
20,"2","met",2,"response_response",103,4,32,2,5,6,4,3,9,0,22,22,1,4189,0,7,2,2,15,14,10,9,5,2,0,0
20,"2","met",2,"response_response",107,4,33,3,1,7,10,7,12,0,36,36,1,4195,0,8,2,2,15,14,11,10,5,2,0,0
20,"2","met",2,"response_response",110,4,34,3,2,9,7,9,13,0,38,38,1,3696,0,8,2,2,15,14,12,11,5,2,0,0
20,"2","met",2,"response_response",113,4,35,3,3,7,13,8,10,0,38,38,1,2319,0,8,2,2,15,14,13,12,5,2,0,0
20,"2","met",2,"response_response",116,4,36,3,4,11,9,15,12,0,47,47,1,3017,0,8,2,2,15,14,14,13,5,2,0,0
20,"2","met",2,"response_response",119,4,37,3,5,11,10,11,8,0,40,40,1,2764,0,8,2,2,15,14,15,14,5,2,0,0
20,"2","met",2,"response_response",123,4,38,3,1,14,14,10,10,0,48,48,1,2466,0,8,2,2,15,14,16,15,5,2,0,0
20,"2","met",2,"response_response",126,4,39,3,2,15,15,14,12,0,56,56,1,3011,0,8,2,2,15,14,17,16,5,2,0,0
20,"2","met",2,"response_response",129,4,40,3,3,14,10,11,14,0,49,69,0,5246,0,8,2,2,15,14,18,16,5,2,0,0
20,"2","met",2,"response_response",132,4,41,3,4,15,15,10,13,0,53,53,1,1963,0,8,2,2,15,14,19,17,5,2,0,0
20,"2","met",2,"response_response",135,4,42,3,5,10,9,11,9,0,39,39,1,5663,0,8,2,2,15,14,20,18,5,2,0,0
20,"2","met",2,"response_response",139,4,43,3,1,15,9,13,15,0,52,49,0,8233,0,8,2,2,15,14,21,18,5,2,0,0
20,"2","met",2,"response_response",142,4,44,3,2,15,9,15,15,0,54,54,1,7219,0,8,2,2,15,14,22,19,5,2,0,0
20,"2","met",2,"response_response",145,4,45,3,3,8,12,15,14,0,49,49,1,4986,0,8,2,2,15,14,23,20,5,2,0,0
20,"2","met",2,"response_response",148,4,46,3,4,11,10,8,14,0,43,53,0,4250,0,8,2,2,15,14,24,20,5,2,0,0
20,"2","met",2,"response_response",151,4,47,3,5,15,8,8,12,0,43,42,0,9327,0,8,2,2,15,14,25,20,5,2,0,0
20,"2","met",2,"response_response",155,4,48,2,1,3,6,4,4,0,17,17,1,3378,0,9,2,2,16,15,25,20,5,2,0,0
20,"2","met",2,"response_response",158,4,49,2,2,6,5,8,6,0,25,25,1,2778,0,9,2,2,17,16,25,20,5,2,0,0
20,"2","met",2,"response_response",161,4,50,2,3,9,6,4,7,0,26,26,1,5743,0,9,2,2,18,17,25,20,5,2,0,0
92,"1","met",2,"response_response",4,4,1,2,1,8,9,5,4,0,26,26,1,4977,0,1,0,0,1,1,0,0,0,0,0,0
92,"1","met",2,"response_response",7,4,2,2,2,9,5,8,5,0,27,27,1,2886,0,1,0,0,2,2,0,0,0,0,0,0
92,"1","met",2,"response_response",10,4,3,2,3,7,8,3,3,0,21,21,1,3806,0,1,0,0,3,3,0,0,0,0,0,0
92,"1","met",2,"response_response",13,4,4,2,4,5,5,9,8,0,27,27,1,2739,0,1,0,0,4,4,0,0,0,0,0,0
92,"1","met",2,"response_response",16,4,5,2,5,7,4,4,6,0,21,21,1,2456,0,1,0,0,5,5,0,0,0,0,0,0
92,"1","met",2,"response_response",20,4,6,3,1,9,10,7,9,0,35,35,1,4388,0,2,0,0,5,5,1,1,0,0,0,0
92,"1","met",2,"response_response",23,4,7,3,2,10,12,7,7,0,36,36,1,3592,0,2,0,0,5,5,2,2,0,0,0,0
92,"1","met",2,"response_response",26,4,8,3,3,10,11,14,11,0,46,46,1,2984,0,2,0,0,5,5,3,3,0,0,0,0
92,"1","met",2,"response_response",29,4,9,3,4,15,15,13,10,0,53,53,1,3939,0,2,0,0,5,5,4,4,0,0,0,0
92,"1","met",2,"response_response",32,4,10,3,5,10,8,11,7,0,36,36,1,4650,0,2,0,0,5,5,5,5,0,0,0,0
92,"1","met",2,"response_response",36,4,11,4,1,11,19,23,18,0,71,71,1,5338,0,3,0,0,5,5,5,5,1,1,0,0
92,"1","met",2,"response_response",39,4,12,4,2,25,7,22,19,0,73,73,1,6112,0,3,0,0,5,5,5,5,2,2,0,0
92,"1","met",2,"response_response",42,4,13,4,3,7,22,15,8,0,52,52,1,6947,0,3,0,0,5,5,5,5,3,3,0,0
92,"1","met",2,"response_response",45,4,14,4,4,18,22,18,7,0,65,65,1,5281,0,3,0,0,5,5,5,5,4,4,0,0
92,"1","met",2,"response_response",48,4,15,4,5,20,15,7,17,0,59,59,1,5130,0,3,0,0,5,5,5,5,5,5,0,0
92,"1","met",2,"response_response",52,4,16,5,1,26,31,23,17,0,97,93,0,10300,0,4,0,0,5,5,5,5,5,5,1,0
92,"1","met",2,"response_response",55,4,17,5,2,33,8,8,21,0,70,NA,0,2250,1,4,0,0,5,5,5,5,5,5,2,0
92,"1","met",2,"response_response",59,4,18,4,1,12,7,22,7,0,48,48,1,4685,0,5,0,0,5,5,5,5,6,6,2,0
92,"1","met",2,"response_response",62,4,19,4,2,25,17,11,13,0,66,66,1,4846,0,5,0,0,5,5,5,5,7,7,2,0
92,"1","met",2,"response_response",65,4,20,4,3,19,10,18,7,0,54,54,1,3591,0,5,0,0,5,5,5,5,8,8,2,0
92,"1","met",2,"response_response",68,4,21,4,4,16,14,12,20,0,62,62,1,4535,0,5,0,0,5,5,5,5,9,9,2,0
92,"1","met",2,"response_response",71,4,22,4,5,16,22,11,22,0,71,71,1,6622,0,5,0,0,5,5,5,5,10,10,2,0
92,"1","met",2,"response_response",75,4,23,4,1,14,17,9,20,0,60,60,1,2495,0,5,0,0,5,5,5,5,11,11,2,0
92,"1","met",2,"response_response",78,4,24,4,2,15,13,7,7,0,42,42,1,6811,0,5,0,0,5,5,5,5,12,12,2,0
92,"1","met",2,"response_response",81,4,25,4,3,24,20,24,8,0,76,76,1,5565,0,5,0,0,5,5,5,5,13,13,2,0
92,"1","met",2,"response_response",84,4,26,4,4,16,19,16,12,0,63,63,1,7065,0,5,0,0,5,5,5,5,14,14,2,0
92,"1","met",2,"response_response",87,4,27,4,5,19,10,13,20,0,62,62,1,8935,0,5,0,0,5,5,5,5,15,15,2,0
92,"1","met",2,"response_response",91,4,28,3,1,11,14,10,12,0,47,47,1,3220,0,6,0,0,5,5,6,6,15,15,2,0
92,"1","met",2,"response_response",94,4,29,3,2,9,10,7,13,0,39,39,1,6864,0,6,0,0,5,5,7,7,15,15,2,0
92,"1","met",2,"response_response",97,4,30,3,3,15,10,12,12,0,49,49,1,3506,0,6,0,0,5,5,8,8,15,15,2,0
92,"1","met",2,"response_response",100,4,31,3,4,12,8,12,7,0,39,39,1,4514,0,6,0,0,5,5,9,9,15,15,2,0
92,"1","met",2,"response_response",103,4,32,3,5,14,15,11,7,0,47,47,1,2965,0,6,0,0,5,5,10,10,15,15,2,0
92,"1","met",2,"response_response",107,4,33,4,1,24,19,10,24,0,77,77,1,8514,0,7,0,0,5,5,10,10,16,16,2,0
92,"1","met",2,"response_response",110,4,34,4,2,12,15,20,20,0,67,67,1,4186,0,7,0,0,5,5,10,10,17,17,2,0
92,"1","met",2,"response_response",113,4,35,4,3,13,25,12,22,0,72,72,1,5771,0,7,0,0,5,5,10,10,18,18,2,0
92,"1","met",2,"response_response",116,4,36,4,4,16,23,11,12,0,62,63,0,8356,0,7,0,0,5,5,10,10,19,18,2,0
92,"1","met",2,"response_response",119,4,37,4,5,22,17,18,20,0,77,64,0,9272,0,7,0,0,5,5,10,10,20,18,2,0
92,"1","met",2,"response_response",123,4,38,4,1,25,8,19,24,0,76,66,0,6231,0,7,0,0,5,5,10,10,21,18,2,0
92,"1","met",2,"response_response",126,4,39,4,2,8,17,24,9,0,58,58,1,3948,0,7,0,0,5,5,10,10,22,19,2,0
92,"1","met",2,"response_response",129,4,40,4,3,17,13,13,17,0,60,60,1,4168,0,7,0,0,5,5,10,10,23,20,2,0
92,"1","met",2,"response_response",132,4,41,4,4,15,14,16,25,0,70,70,1,7237,0,7,0,0,5,5,10,10,24,21,2,0
92,"1","met",2,"response_response",135,4,42,4,5,22,25,22,22,0,91,91,1,7265,0,7,0,0,5,5,10,10,25,22,2,0
92,"1","met",2,"response_response",139,4,43,5,1,9,21,7,19,0,56,56,1,7449,0,8,0,0,5,5,10,10,25,22,3,1
92,"1","met",2,"response_response",142,4,44,5,2,31,15,12,18,0,76,76,1,6472,0,8,0,0,5,5,10,10,25,22,4,2
92,"1","met",2,"response_response",145,4,45,5,3,34,11,15,14,0,74,74,1,5377,0,8,0,0,5,5,10,10,25,22,5,3
92,"1","met",2,"response_response",148,4,46,5,4,8,8,11,18,0,45,45,1,5774,0,8,0,0,5,5,10,10,25,22,6,4
92,"1","met",2,"response_response",151,4,47,5,5,15,9,27,22,0,73,NA,0,10300,0,8,0,0,5,5,10,10,25,22,7,4
92,"1","met",2,"response_response",155,4,48,5,1,23,11,24,19,0,77,77,1,10191,0,8,0,0,5,5,10,10,25,22,8,5
92,"1","met",2,"response_response",158,4,49,5,2,21,12,15,29,0,77,77,1,10300,0,8,0,0,5,5,10,10,25,22,9,6
92,"1","met",2,"response_response",161,4,50,5,3,11,24,17,9,0,61,61,1,8067,0,8,0,0,5,5,10,10,25,22,10,7
40,"1","met",2,"response_response",4,4,1,3,1,10,12,11,9,0,42,42,1,7338,0,1,0,0,0,0,1,1,0,0,0,0
40,"1","met",2,"response_response",7,4,2,3,2,9,13,15,9,0,46,46,1,10300,0,1,0,0,0,0,2,2,0,0,0,0
40,"1","met",2,"response_response",10,4,3,3,3,14,10,11,15,0,50,50,1,7601,0,1,0,0,0,0,3,3,0,0,0,0
40,"1","met",2,"response_response",13,4,4,3,4,14,10,10,13,0,47,47,1,6075,0,1,0,0,0,0,4,4,0,0,0,0
40,"1","met",2,"response_response",16,4,5,3,5,12,12,11,13,0,48,48,1,4111,0,1,0,0,0,0,5,5,0,0,0,0
40,"1","met",2,"response_response",20,4,6,4,1,19,20,25,14,0,78,58,0,7933,0,2,0,0,0,0,5,5,1,0,0,0
40,"1","met",2,"response_response",23,4,7,4,2,25,18,23,11,0,77,NA,0,2950,1,2,0,0,0,0,5,5,2,0,0,0
40,"1","met",2,"response_response",27,4,8,3,1,8,14,7,9,0,38,38,1,5063,0,3,0,0,0,0,6,6,2,0,0,0
40,"1","met",2,"response_response",30,4,9,3,2,8,11,10,13,0,42,42,1,5734,0,3,0,0,0,0,7,7,2,0,0,0
40,"1","met",2,"response_response",33,4,10,3,3,9,9,15,10,0,43,43,1,5457,0,3,0,0,0,0,8,8,2,0,0,0
40,"1","met",2,"response_response",36,4,11,3,4,15,12,14,14,0,55,55,1,5436,0,3,0,0,0,0,9,9,2,0,0,0
40,"1","met",2,"response_response",39,4,12,3,5,14,8,14,13,0,49,49,1,5077,0,3,0,0,0,0,10,10,2,0,0,0
40,"1","met",2,"response_response",43,4,13,3,1,15,13,11,7,0,46,46,1,4382,0,3,0,0,0,0,11,11,2,0,0,0
40,"1","met",2,"response_response",46,4,14,3,2,12,15,14,8,0,49,49,1,5384,0,3,0,0,0,0,12,12,2,0,0,0
40,"1","met",2,"response_response",49,4,15,3,3,8,14,8,9,0,39,39,1,7032,0,3,0,0,0,0,13,13,2,0,0,0
40,"1","met",2,"response_response",52,4,16,3,4,7,13,11,7,0,38,38,1,3804,0,3,0,0,0,0,14,14,2,0,0,0
40,"1","met",2,"response_response",55,4,17,3,5,9,11,10,14,0,44,44,1,4596,0,3,0,0,0,0,15,15,2,0,0,0
40,"1","met",2,"response_response",59,4,18,3,1,9,15,10,12,0,46,46,1,4194,0,3,0,0,0,0,16,16,2,0,0,0
40,"1","met",2,"response_response",62,4,19,3,2,8,14,15,9,0,46,46,1,5393,0,3,0,0,0,0,17,17,2,0,0,0
40,"1","met",2,"response_response",65,4,20,3,3,9,10,13,13,0,45,45,1,5735,0,3,0,0,0,0,18,18,2,0,0,0
40,"1","met",2,"response_response",68,4,21,3,4,14,14,11,11,0,50,50,1,6266,0,3,0,0,0,0,19,19,2,0,0,0
40,"1","met",2,"response_response",71,4,22,3,5,13,15,7,8,0,43,43,1,6462,0,3,0,0,0,0,20,20,2,0,0,0
40,"1","met",2,"response_response",75,4,23,2,1,3,8,7,3,0,21,21,1,3697,0,4,0,0,1,1,20,20,2,0,0,0
40,"1","met",2,"response_response",78,4,24,2,2,8,6,4,8,0,26,26,1,4915,0,4,0,0,2,2,20,20,2,0,0,0
40,"1","met",2,"response_response",81,4,25,2,3,8,3,8,5,0,24,24,1,6886,0,4,0,0,3,3,20,20,2,0,0,0
40,"1","met",2,"response_response",84,4,26,2,4,9,8,6,6,0,29,29,1,6679,0,4,0,0,4,4,20,20,2,0,0,0
40,"1","met",2,"response_response",87,4,27,2,5,7,5,4,6,0,22,22,1,5407,0,4,0,0,5,5,20,20,2,0,0,0
40,"1","met",2,"response_response",91,4,28,3,1,11,14,15,9,0,49,49,1,3024,0,5,0,0,5,5,21,21,2,0,0,0
40,"1","met",2,"response_response",94,4,29,3,2,11,11,12,12,0,46,46,1,5035,0,5,0,0,5,5,22,22,2,0,0,0
40,"1","met",2,"response_response",97,4,30,3,3,10,8,11,14,0,43,43,1,6390,0,5,0,0,5,5,23,23,2,0,0,0
40,"1","met",2,"response_response",100,4,31,3,4,15,15,15,7,0,52,52,1,7289,0,5,0,0,5,5,24,24,2,0,0,0
40,"1","met",2,"response_response",103,4,32,3,5,14,13,9,11,0,47,47,1,5670,0,5,0,0,5,5,25,25,2,0,0,0
40,"1","met",2,"response_response",107,4,33,3,1,7,7,15,14,0,43,43,1,7863,0,5,0,0,5,5,26,26,2,0,0,0
40,"1","met",2,"response_response",110,4,34,3,2,15,11,11,11,0,48,48,1,3379,0,5,0,0,5,5,27,27,2,0,0,0
40,"1","met",2,"response_response",113,4,35,3,3,13,14,13,10,0,50,50,1,2756,0,5,0,0,5,5,28,28,2,0,0,0
40,"1","met",2,"response_response",116,4,36,3,4,14,13,10,9,0,46,46,1,6488,0,5,0,0,5,5,29,29,2,0,0,0
40,"1","met",2,"response_response",119,4,37,3,5,13,12,14,11,0,50,50,1,3580,0,5,0,0,5,5,30,30,2,0,0,0
40,"1","met",2,"response_response",123,4,38,3,1,12,7,10,15,0,44,44,1,8317,0,5,0,0,5,5,31,31,2,0,0,0
40,"1","met",2,"response_response",126,4,39,3,2,8,14,7,14,0,43,43,1,6081,0,5,0,0,5,5,32,32,2,0,0,0
40,"1","met",2,"response_response",129,4,40,3,3,10,13,14,13,0,50,50,1,4509,0,5,0,0,5,5,33,33,2,0,0,0
40,"1","met",2,"response_response",132,4,41,3,4,15,9,14,14,0,52,4,0,10300,0,5,0,0,5,5,34,33,2,0,0,0
40,"1","met",2,"response_response",135,4,42,3,5,11,7,15,7,0,40,40,1,9387,0,5,0,0,5,5,35,34,2,0,0,0
40,"1","met",2,"response_response",139,4,43,2,1,7,5,3,6,0,21,21,1,2634,0,6,0,0,6,6,35,34,2,0,0,0
40,"1","met",2,"response_response",142,4,44,2,2,6,7,3,4,0,20,20,1,3585,0,6,0,0,7,7,35,34,2,0,0,0
40,"1","met",2,"response_response",145,4,45,2,3,5,8,4,8,0,25,25,1,4000,0,6,0,0,8,8,35,34,2,0,0,0
40,"1","met",2,"response_response",148,4,46,2,4,9,9,8,6,0,32,32,1,5769,0,6,0,0,9,9,35,34,2,0,0,0
40,"1","met",2,"response_response",151,4,47,2,5,5,7,7,3,0,22,NA,0,10300,0,6,0,0,10,9,35,34,2,0,0,0
40,"1","met",2,"response_response",155,4,48,2,1,4,4,5,3,0,16,15,0,2497,0,6,0,0,11,9,35,34,2,0,0,0
40,"1","met",2,"response_response",158,4,49,2,2,5,4,3,3,0,15,15,1,2423,0,6,0,0,12,10,35,34,2,0,0,0
40,"1","met",2,"response_response",161,4,50,2,3,8,3,6,4,0,21,21,1,2333,0,6,0,0,13,11,35,34,2,0,0,0
63,"1","met",2,"response_response",4,4,1,4,1,18,12,17,10,0,57,57,1,3578,0,1,0,0,0,0,0,0,1,1,0,0
63,"1","met",2,"response_response",7,4,2,4,2,22,14,11,12,0,59,59,1,8330,0,1,0,0,0,0,0,0,2,2,0,0
63,"1","met",2,"response_response",10,4,3,4,3,15,24,22,25,0,86,88,0,9607,0,1,0,0,0,0,0,0,3,2,0,0
63,"1","met",2,"response_response",13,4,4,4,4,19,20,24,12,0,75,75,1,9081,0,1,0,0,0,0,0,0,4,3,0,0
63,"1","met",2,"response_response",16,4,5,4,5,15,25,7,9,0,56,56,1,3656,0,1,0,0,0,0,0,0,5,4,0,0
63,"1","met",2,"response_response",20,4,6,3,1,7,12,8,11,0,38,38,1,8756,0,2,0,0,0,0,1,1,5,4,0,0
63,"1","met",2,"response_response",23,4,7,3,2,11,15,9,10,0,45,45,1,3048,0,2,0,0,0,0,2,2,5,4,0,0
63,"1","met",2,"response_response",26,4,8,3,3,9,14,10,12,0,45,45,1,2926,0,2,0,0,0,0,3,3,5,4,0,0
63,"1","met",2,"response_response",29,4,9,3,4,8,14,8,14,0,44,44,1,2506,0,2,0,0,0,0,4,4,5,4,0,0
63,"1","met",2,"response_response",32,4,10,3,5,14,15,8,10,0,47,47,1,2750,0,2,0,0,0,0,5,5,5,4,0,0
63,"1","met",2,"response_response",36,4,11,3,1,7,10,14,15,0,46,46,1,8363,0,2,0,0,0,0,6,6,5,4,0,0
63,"1","met",2,"response_response",39,4,12,3,2,8,7,15,15,0,45,45,1,4131,0,2,0,0,0,0,7,7,5,4,0,0
63,"1","met",2,"response_response",42,4,13,3,3,14,14,15,14,0,57,57,1,6779,0,2,0,0,0,0,8,8,5,4,0,0
63,"1","met",2,"response_response",45,4,14,3,4,13,11,7,9,0,40,40,1,6031,0,2,0,0,0,0,9,9,5,4,0,0
63,"1","met",2,"response_response",48,4,15,3,5,9,8,14,7,0,38,NA,0,10300,0,2,0,0,0,0,10,9,5,4,0,0
63,"1","met",2,"response_response",52,4,16,4,1,8,13,13,24,0,58,61,0,7591,0,3,0,0,0,0,10,9,6,4,0,0
63,"1","met",2,"response_response",55,4,17,4,2,18,15,11,23,0,67,5,0,10300,0,3,0,0,0,0,10,9,7,4,0,0
63,"1","met",2,"response_response",58,4,18,4,3,18,9,24,25,0,76,56,0,7902,0,3,0,0,0,0,10,9,8,4,0,0
63,"1","met",2,"response_response",61,4,19,4,4,7,8,20,24,0,59,59,1,8877,0,3,0,0,0,0,10,9,9,5,0,0
63,"1","met",2,"response_response",64,4,20,4,5,15,24,19,7,0,65,NA,0,10300,0,3,0,0,0,0,10,9,10,5,0,0
63,"1","met",2,"response_response",68,4,21,3,1,12,9,14,9,0,44,44,1,5766,0,4,0,0,0,0,11,10,10,5,0,0
63,"1","met",2,"response_response",71,4,22,3,2,10,13,7,9,0,39,39,1,5880,0,4,0,0,0,0,12,11,10,5,0,0
63,"1","met",2,"response_response",74,4,23,3,3,15,15,13,10,0,53,53,1,2353,0,4,0,0,0,0,13,12,10,5,0,0
63,"1","met",2,"response_response",77,4,24,3,4,14,9,12,14,0,49,49,1,8928,0,4,0,0,0,0,14,13,10,5,0,0
63,"1","met",2,"response_response",80,4,25,3,5,10,7,15,10,0,42,42,1,5671,0,4,0,0,0,0,15,14,10,5,0,0
63,"1","met",2,"response_response",84,4,26,3,1,8,12,14,7,0,41,41,1,5832,0,4,0,0,0,0,16,15,10,5,0,0
63,"1","met",2,"response_response",87,4,27,3,2,8,14,10,8,0,40,40,1,6770,0,4,0,0,0,0,17,16,10,5,0,0
63,"1","met",2,"response_response",90,4,28,3,3,14,14,7,14,0,49,49,1,6295,0,4,0,0,0,0,18,17,10,5,0,0
63,"1","met",2,"response_response",93,4,29,3,4,13,9,14,7,0,43,43,1,8325,0,4,0,0,0,0,19,18,10,5,0,0
63,"1","met",2,"response_response",96,4,30,3,5,13,15,12,9,0,49,49,1,7205,0,4,0,0,0,0,20,19,10,5,0,0
63,"1","met",2,"response_response",100,4,31,3,1,10,9,13,10,0,42,42,1,6491,0,4,0,0,0,0,21,20,10,5,0,0
63,"1","met",2,"response_response",103,4,32,3,2,7,11,15,9,0,42,44,0,8921,0,4,0,0,0,0,22,20,10,5,0,0
63,"1","met",2,"response_response",106,4,33,3,3,7,7,8,9,0,31,31,1,5974,0,4,0,0,0,0,23,21,10,5,0,0
63,"1","met",2,"response_response",109,4,34,3,4,11,7,9,12,0,39,39,1,7460,0,4,0,0,0,0,24,22,10,5,0,0
63,"1","met",2,"response_response",112,4,35,3,5,14,11,8,11,0,44,44,1,6331,0,4,0,0,0,0,25,23,10,5,0,0
63,"1","met",2,"response_response",116,4,36,2,1,7,6,5,9,0,27,29,0,2538,0,5,0,0,1,0,25,23,10,5,0,0
63,"1","met",2,"response_response",119,4,37,2,2,9,5,9,7,0,30,30,1,2455,0,5,0,0,2,1,25,23,10,5,0,0
63,"1","met",2,"response_response",122,4,38,2,3,8,8,9,6,0,31,31,1,3784,0,5,0,0,3,2,25,23,10,5,0,0
63,"1","met",2,"response_response",125,4,39,2,4,8,5,6,8,0,27,27,1,4217,0,5,0,0,4,3,25,23,10,5,0,0
63,"1","met",2,"response_response",128,4,40,2,5,7,5,4,8,0,24,24,1,9040,0,5,0,0,5,4,25,23,10,5,0,0
63,"1","met",2,"response_response",132,4,41,3,1,12,11,12,13,0,48,57,0,10300,0,6,0,0,5,4,26,23,10,5,0,0
63,"1","met",2,"response_response",135,4,42,3,2,7,11,9,7,0,34,34,1,10278,0,6,0,0,5,4,27,24,10,5,0,0
63,"1","met",2,"response_response",138,4,43,3,3,13,14,8,14,0,49,49,1,5366,0,6,0,0,5,4,28,25,10,5,0,0
63,"1","met",2,"response_response",141,4,44,3,4,7,12,10,9,0,38,38,1,2590,0,6,0,0,5,4,29,26,10,5,0,0
63,"1","met",2,"response_response",144,4,45,3,5,10,15,13,12,0,50,50,1,7889,0,6,0,0,5,4,30,27,10,5,0,0
63,"1","met",2,"response_response",148,4,46,3,1,10,7,9,14,0,40,40,1,6654,0,6,0,0,5,4,31,28,10,5,0,0
63,"1","met",2,"response_response",151,4,47,3,2,15,9,11,7,0,42,32,0,9427,0,6,0,0,5,4,32,28,10,5,0,0
63,"1","met",2,"response_response",154,4,48,3,3,7,10,11,9,0,37,36,0,9038,0,6,0,0,5,4,33,28,10,5,0,0
63,"1","met",2,"response_response",157,4,49,3,4,14,14,14,7,0,49,49,1,8831,0,6,0,0,5,4,34,29,10,5,0,0
63,"1","met",2,"response_response",160,4,50,3,5,10,15,14,9,0,48,46,0,5087,0,6,0,0,5,4,35,29,10,5,0,0
110,"2","met",2,"response_response",4,4,1,1,1,1,2,3,2,0,8,8,1,3223,0,1,1,1,0,0,0,0,0,0,0,0
110,"2","met",2,"response_response",7,4,2,1,2,2,3,1,3,0,9,9,1,2419,0,1,2,2,0,0,0,0,0,0,0,0
110,"2","met",2,"response_response",10,4,3,1,3,2,3,1,2,0,8,8,1,3423,0,1,3,3,0,0,0,0,0,0,0,0
110,"2","met",2,"response_response",13,4,4,1,4,3,3,1,2,0,9,9,1,2929,0,1,4,4,0,0,0,0,0,0,0,0
110,"2","met",2,"response_response",16,4,5,1,5,1,2,3,2,0,8,8,1,2895,0,1,5,5,0,0,0,0,0,0,0,0
110,"2","met",2,"response_response",20,4,6,2,1,4,5,6,3,0,18,18,1,3180,0,2,5,5,1,1,0,0,0,0,0,0
110,"2","met",2,"response_response",23,4,7,2,2,7,3,4,9,0,23,23,1,2451,0,2,5,5,2,2,0,0,0,0,0,0
110,"2","met",2,"response_response",26,4,8,2,3,3,9,6,3,0,21,21,1,2692,0,2,5,5,3,3,0,0,0,0,0,0
110,"2","met",2,"response_response",29,4,9,2,4,6,4,8,6,0,24,24,1,2655,0,2,5,5,4,4,0,0,0,0,0,0
110,"2","met",2,"response_response",32,4,10,2,5,7,8,4,9,0,28,20,0,5124,0,2,5,5,5,4,0,0,0,0,0,0
110,"2","met",2,"response_response",36,4,11,3,1,10,9,14,14,0,47,47,1,5812,0,3,5,5,5,4,1,1,0,0,0,0
110,"2","met",2,"response_response",39,4,12,3,2,9,9,11,13,0,42,42,1,6535,0,3,5,5,5,4,2,2,0,0,0,0
110,"2","met",2,"response_response",42,4,13,3,3,11,7,9,10,0,37,37,1,5366,0,3,5,5,5,4,3,3,0,0,0,0
110,"2","met",2,"response_response",45,4,14,3,4,12,11,9,7,0,39,39,1,6331,0,3,5,5,5,4,4,4,0,0,0,0
110,"2","met",2,"response_response",48,4,15,3,5,15,10,14,14,0,53,53,1,6235,0,3,5,5,5,4,5,5,0,0,0,0
110,"2","met",2,"response_response",52,4,16,2,1,9,8,6,7,0,30,30,1,3820,0,4,5,5,6,5,5,5,0,0,0,0
110,"2","met",2,"response_response",55,4,17,2,2,8,3,5,7,0,23,33,0,2203,0,4,5,5,7,5,5,5,0,0,0,0
110,"2","met",2,"response_response",58,4,18,2,3,8,6,5,7,0,26,26,1,4723,0,4,5,5,8,6,5,5,0,0,0,0
110,"2","met",2,"response_response",61,4,19,2,4,5,6,5,9,0,25,25,1,5917,0,4,5,5,9,7,5,5,0,0,0,0
110,"2","met",2,"response_response",64,4,20,2,5,3,4,8,3,0,18,18,1,3295,0,4,5,5,10,8,5,5,0,0,0,0
110,"2","met",2,"response_response",68,4,21,2,1,6,5,8,4,0,23,23,1,2350,0,4,5,5,11,9,5,5,0,0,0,0
110,"2","met",2,"response_response",71,4,22,2,2,7,8,4,5,0,24,24,1,4360,0,4,5,5,12,10,5,5,0,0,0,0
110,"2","met",2,"response_response",74,4,23,2,3,9,3,9,9,0,30,30,1,3339,0,4,5,5,13,11,5,5,0,0,0,0
110,"2","met",2,"response_response",77,4,24,2,4,9,4,4,9,0,26,26,1,4098,0,4,5,5,14,12,5,5,0,0,0,0
110,"2","met",2,"response_response",80,4,25,2,5,8,9,9,6,0,32,32,1,2538,0,4,5,5,15,13,5,5,0,0,0,0
110,"2","met",2,"response_response",84,4,26,2,1,4,4,7,9,0,24,24,1,3265,0,4,5,5,16,14,5,5,0,0,0,0
110,"2","met",2,"response_response",87,4,27,2,2,9,9,3,9,0,30,30,1,5040,0,4,5,5,17,15,5,5,0,0,0,0
110,"2","met",2,"response_response",90,4,28,2,3,7,5,3,6,0,21,21,1,3679,0,4,5,5,18,16,5,5,0,0,0,0
110,"2","met",2,"response_response",93,4,29,2,4,3,5,5,7,0,20,20,1,3199,0,4,5,5,19,17,5,5,0,0,0,0
110,"2","met",2,"response_response",96,4,30,2,5,9,5,4,8,0,26,26,1,3015,0,4,5,5,20,18,5,5,0,0,0,0
110,"2","met",2,"response_response",100,4,31,1,1,1,3,1,1,0,6,6,1,2157,0,5,6,6,20,18,5,5,0,0,0,0
110,"2","met",2,"response_response",103,4,32,1,2,2,1,1,2,0,6,6,1,2513,0,5,7,7,20,18,5,5,0,0,0,0
110,"2","met",2,"response_response",106,4,33,1,3,3,2,1,3,0,9,9,1,2502,0,5,8,8,20,18,5,5,0,0,0,0
110,"2","met",2,"response_response",109,4,34,1,4,1,2,2,1,0,6,6,1,1256,0,5,9,9,20,18,5,5,0,0,0,0
110,"2","met",2,"response_response",112,4,35,1,5,1,3,3,1,0,8,8,1,2348,0,5,10,10,20,18,5,5,0,0,0,0
110,"2","met",2,"response_response",116,4,36,1,1,3,3,3,1,0,10,10,1,2751,0,5,11,11,20,18,5,5,0,0,0,0
110,"2","met",2,"response_response",119,4,37,1,2,2,1,2,3,0,8,8,1,3088,0,5,12,12,20,18,5,5,0,0,0,0
110,"2","met",2,"response_response",122,4,38,1,3,2,2,1,1,0,6,6,1,2806,0,5,13,13,20,18,5,5,0,0,0,0
110,"2","met",2,"response_response",125,4,39,1,4,2,3,2,2,0,9,9,1,2599,0,5,14,14,20,18,5,5,0,0,0,0
110,"2","met",2,"response_response",128,4,40,1,5,2,1,2,1,0,6,6,1,2536,0,5,15,15,20,18,5,5,0,0,0,0
110,"2","met",2,"response_response",132,4,41,1,1,1,2,3,2,0,8,8,1,2278,0,5,16,16,20,18,5,5,0,0,0,0
110,"2","met",2,"response_response",135,4,42,1,2,3,2,3,3,0,11,11,1,2358,0,5,17,17,20,18,5,5,0,0,0,0
110,"2","met",2,"response_response",138,4,43,1,3,2,3,3,3,0,11,11,1,1235,0,5,18,18,20,18,5,5,0,0,0,0
110,"2","met",2,"response_response",141,4,44,1,4,1,1,1,2,0,5,5,1,1883,0,5,19,19,20,18,5,5,0,0,0,0
110,"2","met",2,"response_response",144,4,45,1,5,2,3,1,3,0,9,9,1,2057,0,5,20,20,20,18,5,5,0,0,0,0
110,"2","met",2,"response_response",148,4,46,2,1,4,9,5,8,0,26,26,1,3250,0,6,20,20,21,19,5,5,0,0,0,0
110,"2","met",2,"response_response",151,4,47,2,2,4,4,9,7,0,24,24,1,1895,0,6,20,20,22,20,5,5,0,0,0,0
110,"2","met",2,"response_response",154,4,48,2,3,6,5,8,7,0,26,26,1,4053,0,6,20,20,23,21,5,5,0,0,0,0
110,"2","met",2,"response_response",157,4,49,2,4,6,6,9,6,0,27,27,1,2465,0,6,20,20,24,22,5,5,0,0,0,0
110,"2","met",2,"response_response",160,4,50,2,5,5,4,6,5,0,20,20,1,2738,0,6,20,20,25,23,5,5,0,0,0,0
2,"2","met",2,"response_response",4,4,1,3,1,8,12,10,10,0,40,40,1,3852,0,1,0,0,0,0,1,1,0,0,0,0
2,"2","met",2,"response_response",7,4,2,3,2,11,8,12,15,0,46,46,1,5529,0,1,0,0,0,0,2,2,0,0,0,0
2,"2","met",2,"response_response",10,4,3,3,3,12,9,11,9,0,41,41,1,4030,0,1,0,0,0,0,3,3,0,0,0,0
2,"2","met",2,"response_response",13,4,4,3,4,10,10,7,11,0,38,38,1,3409,0,1,0,0,0,0,4,4,0,0,0,0
2,"2","met",2,"response_response",16,4,5,3,5,8,10,13,12,0,43,43,1,6436,0,1,0,0,0,0,5,5,0,0,0,0
2,"2","met",2,"response_response",20,4,6,4,1,15,17,13,21,0,66,66,1,10101,0,2,0,0,0,0,5,5,1,1,0,0
2,"2","met",2,"response_response",23,4,7,4,2,25,11,25,10,0,71,71,1,6950,0,2,0,0,0,0,5,5,2,2,0,0
2,"2","met",2,"response_response",26,4,8,4,3,19,8,20,13,0,60,60,1,5034,0,2,0,0,0,0,5,5,3,3,0,0
2,"2","met",2,"response_response",29,4,9,4,4,9,24,25,15,0,73,73,1,6286,0,2,0,0,0,0,5,5,4,4,0,0
2,"2","met",2,"response_response",32,4,10,4,5,21,8,7,14,0,50,50,1,4448,0,2,0,0,0,0,5,5,5,5,0,0
2,"2","met",2,"response_response",36,4,11,5,1,28,32,28,15,0,103,103,1,10300,0,3,0,0,0,0,5,5,5,5,1,1
2,"2","met",2,"response_response",39,4,12,5,2,15,34,17,18,0,84,NA,0,10300,0,3,0,0,0,0,5,5,5,5,2,1
2,"2","met",2,"response_response",42,4,13,5,3,22,34,19,7,0,82,81,0,10300,0,3,0,0,0,0,5,5,5,5,3,1
2,"2","met",2,"response_response",45,4,14,5,4,9,32,15,34,0,90,NA,0,2686,1,3,0,0,0,0,5,5,5,5,4,1
2,"2","met",2,"response_response",49,4,15,2,1,7,8,8,8,0,31,31,1,7110,0,4,0,0,1,1,5,5,5,5,4,1
2,"2","met",2,"response_response",52,4,16,2,2,5,4,9,4,0,22,22,1,3925,0,4,0,0,2,2,5,5,5,5,4,1
2,"2","met",2,"response_response",55,4,17,2,3,7,5,4,7,0,23,23,1,5143,0,4,0,0,3,3,5,5,5,5,4,1
2,"2","met",2,"response_response",58,4,18,2,4,6,9,5,6,0,26,26,1,3860,0,4,0,0,4,4,5,5,5,5,4,1
2,"2","met",2,"response_response",61,4,19,2,5,3,9,3,9,0,24,24,1,3227,0,4,0,0,5,5,5,5,5,5,4,1
2,"2","met",2,"response_response",65,4,20,3,1,12,13,13,11,0,49,49,1,4889,0,5,0,0,5,5,6,6,5,5,4,1
2,"2","met",2,"response_response",68,4,21,3,2,14,8,10,13,0,45,NA,0,10300,0,5,0,0,5,5,7,6,5,5,4,1
2,"2","met",2,"response_response",71,4,22,3,3,11,12,12,7,0,42,42,1,9794,0,5,0,0,5,5,8,7,5,5,4,1
2,"2","met",2,"response_response",74,4,23,3,4,14,7,15,11,0,47,47,1,5509,0,5,0,0,5,5,9,8,5,5,4,1
2,"2","met",2,"response_response",77,4,24,3,5,15,7,10,8,0,40,40,1,2458,0,5,0,0,5,5,10,9,5,5,4,1
2,"2","met",2,"response_response",81,4,25,4,1,20,8,15,11,0,54,54,1,6503,0,6,0,0,5,5,10,9,6,6,4,1
2,"2","met",2,"response_response",84,4,26,4,2,10,21,22,16,0,69,79,0,9484,0,6,0,0,5,5,10,9,7,6,4,1
2,"2","met",2,"response_response",87,4,27,4,3,15,8,13,7,0,43,43,1,6408,0,6,0,0,5,5,10,9,8,7,4,1
2,"2","met",2,"response_response",90,4,28,4,4,16,21,18,17,0,72,NA,0,7773,1,6,0,0,5,5,10,9,9,7,4,1
2,"2","met",2,"response_response",94,4,29,3,1,8,11,10,10,0,39,39,1,3205,0,7,0,0,5,5,11,10,9,7,4,1
2,"2","met",2,"response_response",97,4,30,3,2,12,7,7,15,0,41,31,0,5881,0,7,0,0,5,5,12,10,9,7,4,1
2,"2","met",2,"response_response",100,4,31,3,3,7,15,12,9,0,43,43,1,6090,0,7,0,0,5,5,13,11,9,7,4,1
2,"2","met",2,"response_response",103,4,32,3,4,15,14,8,10,0,47,47,1,4619,0,7,0,0,5,5,14,12,9,7,4,1
2,"2","met",2,"response_response",106,4,33,3,5,9,13,12,12,0,46,46,1,2843,0,7,0,0,5,5,15,13,9,7,4,1
2,"2","met",2,"response_response",110,4,34,1,1,1,3,1,1,0,6,6,1,3507,0,8,1,1,5,5,15,13,9,7,4,1
2,"2","met",2,"response_response",113,4,35,1,2,1,3,1,2,0,7,7,1,2282,0,8,2,2,5,5,15,13,9,7,4,1
2,"2","met",2,"response_response",116,4,36,1,3,1,3,1,2,0,7,7,1,2530,0,8,3,3,5,5,15,13,9,7,4,1
2,"2","met",2,"response_response",119,4,37,1,4,3,2,2,2,0,9,9,1,2132,0,8,4,4,5,5,15,13,9,7,4,1
2,"2","met",2,"response_response",122,4,38,1,5,1,2,1,2,0,6,6,1,1279,0,8,5,5,5,5,15,13,9,7,4,1
2,"2","met",2,"response_response",126,4,39,2,1,7,7,6,5,0,25,25,1,5480,0,9,5,5,6,6,15,13,9,7,4,1
2,"2","met",2,"response_response",129,4,40,2,2,5,6,4,4,0,19,19,1,2942,0,9,5,5,7,7,15,13,9,7,4,1
2,"2","met",2,"response_response",132,4,41,2,3,8,7,7,9,0,31,31,1,3104,0,9,5,5,8,8,15,13,9,7,4,1
2,"2","met",2,"response_response",135,4,42,2,4,4,8,4,7,0,23,23,1,3569,0,9,5,5,9,9,15,13,9,7,4,1
2,"2","met",2,"response_response",138,4,43,2,5,5,4,7,6,0,22,26,0,4721,0,9,5,5,10,9,15,13,9,7,4,1
2,"2","met",2,"response_response",142,4,44,3,1,11,15,10,10,0,46,46,1,2385,0,10,5,5,10,9,16,14,9,7,4,1
2,"2","met",2,"response_response",145,4,45,3,2,13,11,14,7,0,45,45,1,6081,0,10,5,5,10,9,17,15,9,7,4,1
2,"2","met",2,"response_response",148,4,46,3,3,12,8,8,7,0,35,35,1,3819,0,10,5,5,10,9,18,16,9,7,4,1
2,"2","met",2,"response_response",151,4,47,3,4,7,12,7,14,0,40,40,1,3668,0,10,5,5,10,9,19,17,9,7,4,1
2,"2","met",2,"response_response",154,4,48,3,5,10,13,12,10,0,45,45,1,4688,0,10,5,5,10,9,20,18,9,7,4,1
2,"2","met",2,"response_response",158,4,49,2,1,7,9,3,8,0,27,27,1,5974,0,11,5,5,11,10,20,18,9,7,4,1
2,"2","met",2,"response_response",161,4,50,2,2,7,9,4,5,0,25,25,1,2511,0,11,5,5,12,11,20,18,9,7,4,1
117,"1","met",2,"response_response",4,4,1,3,1,8,12,9,14,0,43,43,1,6910,0,1,0,0,0,0,1,1,0,0,0,0
117,"1","met",2,"response_response",7,4,2,3,2,13,7,11,13,0,44,44,1,4558,0,1,0,0,0,0,2,2,0,0,0,0
117,"1","met",2,"response_response",10,4,3,3,3,12,10,9,10,0,41,41,1,5488,1,1,0,0,0,0,3,3,0,0,0,0
117,"1","met",2,"response_response",14,4,4,4,1,11,18,16,20,0,65,55,0,5563,0,2,0,0,0,0,3,3,1,0,0,0
117,"1","met",2,"response_response",17,4,5,4,2,19,16,8,17,0,60,59,0,9192,1,2,0,0,0,0,3,3,2,0,0,0
117,"1","met",2,"response_response",21,4,6,3,1,8,15,11,11,0,45,45,1,5749,0,3,0,0,0,0,4,4,2,0,0,0
117,"1","met",2,"response_response",24,4,7,3,2,9,13,11,12,0,45,44,0,4022,0,3,0,0,0,0,5,4,2,0,0,0
117,"1","met",2,"response_response",27,4,8,3,3,11,9,12,7,0,39,39,1,5713,0,3,0,0,0,0,6,5,2,0,0,0
117,"1","met",2,"response_response",30,4,9,3,4,8,10,12,14,0,44,44,1,8526,0,3,0,0,0,0,7,6,2,0,0,0
117,"1","met",2,"response_response",33,4,10,3,5,12,7,7,10,0,36,36,1,5009,0,3,0,0,0,0,8,7,2,0,0,0
117,"1","met",2,"response_response",37,4,11,4,1,13,23,9,10,0,55,55,1,10300,0,4,0,0,0,0,8,7,3,1,0,0
117,"1","met",2,"response_response",40,4,12,4,2,8,23,20,18,0,69,69,1,6803,0,4,0,0,0,0,8,7,4,2,0,0
117,"1","met",2,"response_response",43,4,13,4,3,12,12,20,19,0,63,63,1,6431,0,4,0,0,0,0,8,7,5,3,0,0
117,"1","met",2,"response_response",46,4,14,4,4,17,23,22,13,0,75,75,1,6740,0,4,0,0,0,0,8,7,6,4,0,0
117,"1","met",2,"response_response",49,4,15,4,5,14,16,24,21,0,75,75,1,4580,0,4,0,0,0,0,8,7,7,5,0,0
117,"1","met",2,"response_response",53,4,16,2,1,8,8,8,9,0,33,33,1,8768,0,5,0,0,1,1,8,7,7,5,0,0
117,"1","met",2,"response_response",56,4,17,2,2,7,3,4,7,0,21,21,1,2837,0,5,0,0,2,2,8,7,7,5,0,0
117,"1","met",2,"response_response",59,4,18,2,3,6,9,3,5,0,23,23,1,3667,0,5,0,0,3,3,8,7,7,5,0,0
117,"1","met",2,"response_response",62,4,19,2,4,5,9,6,3,0,23,23,1,2636,0,5,0,0,4,4,8,7,7,5,0,0
117,"1","met",2,"response_response",65,4,20,2,5,3,8,4,3,0,18,18,1,3240,0,5,0,0,5,5,8,7,7,5,0,0
117,"1","met",2,"response_response",69,4,21,3,1,11,10,14,7,0,42,42,1,4875,0,6,0,0,5,5,9,8,7,5,0,0
117,"1","met",2,"response_response",72,4,22,3,2,12,10,8,12,0,42,42,1,3688,0,6,0,0,5,5,10,9,7,5,0,0
117,"1","met",2,"response_response",75,4,23,3,3,10,8,11,12,0,41,41,1,8277,0,6,0,0,5,5,11,10,7,5,0,0
117,"1","met",2,"response_response",78,4,24,3,4,11,8,12,15,0,46,46,1,8336,0,6,0,0,5,5,12,11,7,5,0,0
117,"1","met",2,"response_response",81,4,25,3,5,13,7,11,9,0,40,40,1,3715,0,6,0,0,5,5,13,12,7,5,0,0
117,"1","met",2,"response_response",85,4,26,3,1,11,13,7,11,0,42,42,1,8922,0,6,0,0,5,5,14,13,7,5,0,0
117,"1","met",2,"response_response",88,4,27,3,2,12,10,7,9,0,38,38,1,4857,0,6,0,0,5,5,15,14,7,5,0,0
117,"1","met",2,"response_response",91,4,28,3,3,7,13,7,15,0,42,42,1,8636,0,6,0,0,5,5,16,15,7,5,0,0
117,"1","met",2,"response_response",94,4,29,3,4,10,7,9,13,0,39,39,1,9109,0,6,0,0,5,5,17,16,7,5,0,0
117,"1","met",2,"response_response",97,4,30,3,5,9,12,13,10,0,44,54,0,5915,0,6,0,0,5,5,18,16,7,5,0,0
117,"1","met",2,"response_response",101,4,31,1,1,3,1,1,3,0,8,8,1,4429,0,7,1,1,5,5,18,16,7,5,0,0
117,"1","met",2,"response_response",104,4,32,1,2,3,1,1,3,0,8,8,1,2909,0,7,2,2,5,5,18,16,7,5,0,0
117,"1","met",2,"response_response",107,4,33,1,3,3,2,1,1,0,7,7,1,1907,0,7,3,3,5,5,18,16,7,5,0,0
117,"1","met",2,"response_response",110,4,34,1,4,2,3,1,2,0,8,8,1,1923,0,7,4,4,5,5,18,16,7,5,0,0
117,"1","met",2,"response_response",113,4,35,1,5,3,1,3,3,0,10,10,1,4043,0,7,5,5,5,5,18,16,7,5,0,0
117,"1","met",2,"response_response",117,4,36,4,1,21,9,17,17,0,64,64,1,9343,0,8,5,5,5,5,18,16,8,6,0,0
117,"1","met",2,"response_response",120,4,37,4,2,14,8,9,16,0,47,47,1,5757,0,8,5,5,5,5,18,16,9,7,0,0
117,"1","met",2,"response_response",123,4,38,4,3,17,21,14,8,0,60,60,1,7793,0,8,5,5,5,5,18,16,10,8,0,0
117,"1","met",2,"response_response",126,4,39,4,4,11,23,14,22,0,70,88,0,7523,0,8,5,5,5,5,18,16,11,8,0,0
117,"1","met",2,"response_response",129,4,40,4,5,7,17,16,12,0,52,52,1,10300,0,8,5,5,5,5,18,16,12,9,0,0
117,"1","met",2,"response_response",133,4,41,3,1,11,11,11,8,0,41,41,1,6639,0,9,5,5,5,5,19,17,12,9,0,0
117,"1","met",2,"response_response",136,4,42,3,2,8,11,8,10,0,37,37,1,3537,0,9,5,5,5,5,20,18,12,9,0,0
117,"1","met",2,"response_response",139,4,43,3,3,13,15,9,10,0,47,47,1,3635,0,9,5,5,5,5,21,19,12,9,0,0
117,"1","met",2,"response_response",142,4,44,3,4,15,15,12,12,0,54,54,1,3071,0,9,5,5,5,5,22,20,12,9,0,0
117,"1","met",2,"response_response",145,4,45,3,5,10,10,8,8,0,36,36,1,4380,0,9,5,5,5,5,23,21,12,9,0,0
117,"1","met",2,"response_response",149,4,46,5,1,25,34,34,27,0,120,NA,0,10300,0,10,5,5,5,5,23,21,12,9,1,0
117,"1","met",2,"response_response",152,4,47,5,2,30,35,20,9,0,94,94,1,7231,0,10,5,5,5,5,23,21,12,9,2,1
117,"1","met",2,"response_response",155,4,48,5,3,33,12,26,9,0,80,80,1,6975,0,10,5,5,5,5,23,21,12,9,3,2
117,"1","met",2,"response_response",158,4,49,5,4,11,34,25,32,0,102,105,0,10148,0,10,5,5,5,5,23,21,12,9,4,2
117,"1","met",2,"response_response",161,4,50,5,5,17,10,32,32,0,91,NA,0,10300,0,10,5,5,5,5,23,21,12,9,5,2
96,"2","met",2,"response_response",4,4,1,3,1,11,12,7,11,0,41,41,1,8043,0,1,0,0,0,0,1,1,0,0,0,0
96,"2","met",2,"response_response",7,4,2,3,2,13,9,8,7,0,37,37,1,6360,1,1,0,0,0,0,2,2,0,0,0,0
96,"2","met",2,"response_response",11,4,3,4,1,20,15,22,16,0,73,72,0,10300,0,2,0,0,0,0,2,2,1,0,0,0
96,"2","met",2,"response_response",14,4,4,4,2,16,24,22,9,0,71,71,1,4101,0,2,0,0,0,0,2,2,2,1,0,0
96,"2","met",2,"response_response",17,4,5,4,3,13,21,25,15,0,74,74,1,7319,0,2,0,0,0,0,2,2,3,2,0,0
96,"2","met",2,"response_response",20,4,6,4,4,10,19,14,24,0,67,57,0,10300,0,2,0,0,0,0,2,2,4,2,0,0
96,"2","met",2,"response_response",23,4,7,4,5,9,11,15,8,0,43,43,1,10300,0,2,0,0,0,0,2,2,5,3,0,0
96,"2","met",2,"response_response",27,4,8,3,1,9,14,9,14,0,46,46,1,7552,0,3,0,0,0,0,3,3,5,3,0,0
96,"2","met",2,"response_response",30,4,9,3,2,11,14,9,8,0,42,42,1,6223,0,3,0,0,0,0,4,4,5,3,0,0
96,"2","met",2,"response_response",33,4,10,3,3,8,8,12,10,0,38,38,1,9742,1,3,0,0,0,0,5,5,5,3,0,0
96,"2","met",2,"response_response",37,4,11,4,1,12,25,10,19,0,66,64,0,9194,0,4,0,0,0,0,5,5,6,3,0,0
96,"2","met",2,"response_response",40,4,12,4,2,25,11,18,13,0,67,67,1,10300,0,4,0,0,0,0,5,5,7,4,0,0
96,"2","met",2,"response_response",43,4,13,4,3,7,8,10,8,0,33,33,1,4828,0,4,0,0,0,0,5,5,8,5,0,0
96,"2","met",2,"response_response",46,4,14,4,4,20,25,7,24,0,76,76,1,10300,0,4,0,0,0,0,5,5,9,6,0,0
96,"2","met",2,"response_response",49,4,15,4,5,8,24,17,21,0,70,NA,0,10300,1,4,0,0,0,0,5,5,10,6,0,0
96,"2","met",2,"response_response",53,4,16,3,1,8,8,10,8,0,34,34,1,6017,0,5,0,0,0,0,6,6,10,6,0,0
96,"2","met",2,"response_response",56,4,17,3,2,9,7,12,14,0,42,42,1,4329,0,5,0,0,0,0,7,7,10,6,0,0
96,"2","met",2,"response_response",59,4,18,3,3,8,10,12,9,0,39,39,1,5260,0,5,0,0,0,0,8,8,10,6,0,0
96,"2","met",2,"response_response",62,4,19,3,4,12,11,15,13,0,51,51,1,7409,0,5,0,0,0,0,9,9,10,6,0,0
96,"2","met",2,"response_response",65,4,20,3,5,9,15,10,12,0,46,46,1,4401,0,5,0,0,0,0,10,10,10,6,0,0
96,"2","met",2,"response_response",69,4,21,4,1,22,17,15,18,0,72,71,0,10300,0,6,0,0,0,0,10,10,11,6,0,0
96,"2","met",2,"response_response",72,4,22,4,2,15,18,22,19,0,74,74,1,7589,0,6,0,0,0,0,10,10,12,7,0,0
96,"2","met",2,"response_response",75,4,23,4,3,23,21,18,14,0,76,NA,0,10300,0,6,0,0,0,0,10,10,13,7,0,0
96,"2","met",2,"response_response",78,4,24,4,4,7,20,15,12,0,54,NA,0,10300,1,6,0,0,0,0,10,10,14,7,0,0
96,"2","met",2,"response_response",82,4,25,3,1,13,12,10,10,0,45,45,1,5333,0,7,0,0,0,0,11,11,14,7,0,0
96,"2","met",2,"response_response",85,4,26,3,2,10,14,11,7,0,42,42,1,6218,0,7,0,0,0,0,12,12,14,7,0,0
96,"2","met",2,"response_response",88,4,27,3,3,11,10,10,13,0,44,44,1,3289,0,7,0,0,0,0,13,13,14,7,0,0
96,"2","met",2,"response_response",91,4,28,3,4,11,7,7,9,0,34,34,1,4122,0,7,0,0,0,0,14,14,14,7,0,0
96,"2","met",2,"response_response",94,4,29,3,5,12,14,13,8,0,47,47,1,8814,0,7,0,0,0,0,15,15,14,7,0,0
96,"2","met",2,"response_response",98,4,30,3,1,10,7,15,11,0,43,53,0,7928,0,7,0,0,0,0,16,15,14,7,0,0
96,"2","met",2,"response_response",101,4,31,3,2,9,10,15,12,0,46,46,1,6381,0,7,0,0,0,0,17,16,14,7,0,0
96,"2","met",2,"response_response",104,4,32,3,3,8,8,14,14,0,44,44,1,6534,0,7,0,0,0,0,18,17,14,7,0,0
96,"2","met",2,"response_response",107,4,33,3,4,11,13,7,11,0,42,42,1,3851,0,7,0,0,0,0,19,18,14,7,0,0
96,"2","met",2,"response_response",110,4,34,3,5,11,13,7,11,0,42,42,1,3177,0,7,0,0,0,0,20,19,14,7,0,0
96,"2","met",2,"response_response",114,4,35,3,1,7,10,13,13,0,43,43,1,10300,0,7,0,0,0,0,21,20,14,7,0,0
96,"2","met",2,"response_response",117,4,36,3,2,9,10,12,8,0,39,39,1,5743,0,7,0,0,0,0,22,21,14,7,0,0
96,"2","met",2,"response_response",120,4,37,3,3,7,8,7,10,0,32,32,1,10300,0,7,0,0,0,0,23,22,14,7,0,0
96,"2","met",2,"response_response",123,4,38,3,4,9,12,11,10,0,42,42,1,2979,0,7,0,0,0,0,24,23,14,7,0,0
96,"2","met",2,"response_response",126,4,39,3,5,8,14,12,14,0,48,48,1,4405,0,7,0,0,0,0,25,24,14,7,0,0
96,"2","met",2,"response_response",130,4,40,3,1,13,9,15,12,0,49,48,0,4459,0,7,0,0,0,0,26,24,14,7,0,0
96,"2","met",2,"response_response",133,4,41,3,2,7,10,13,10,0,40,40,1,5744,0,7,0,0,0,0,27,25,14,7,0,0
96,"2","met",2,"response_response",136,4,42,3,3,8,10,8,9,0,35,35,1,6226,0,7,0,0,0,0,28,26,14,7,0,0
96,"2","met",2,"response_response",139,4,43,3,4,13,14,8,11,0,46,46,1,2787,0,7,0,0,0,0,29,27,14,7,0,0
96,"2","met",2,"response_response",142,4,44,3,5,12,8,14,7,0,41,41,1,2184,0,7,0,0,0,0,30,28,14,7,0,0
96,"2","met",2,"response_response",146,4,45,3,1,8,13,9,9,0,39,39,1,3596,0,7,0,0,0,0,31,29,14,7,0,0
96,"2","met",2,"response_response",149,4,46,3,2,12,7,13,11,0,43,42,0,9394,0,7,0,0,0,0,32,29,14,7,0,0
96,"2","met",2,"response_response",152,4,47,3,3,7,8,12,13,0,40,40,1,6338,0,7,0,0,0,0,33,30,14,7,0,0
96,"2","met",2,"response_response",155,4,48,3,4,7,7,7,11,0,32,32,1,10300,0,7,0,0,0,0,34,31,14,7,0,0
96,"2","met",2,"response_response",158,4,49,3,5,12,8,10,8,0,38,38,1,3046,0,7,0,0,0,0,35,32,14,7,0,0
96,"2","met",2,"response_response",162,4,50,3,1,11,10,9,8,0,38,38,1,2628,0,7,0,0,0,0,36,33,14,7,0,0
57,"1","met",2,"response_response",4,4,1,5,1,23,32,27,32,0,114,95,0,9596,0,1,0,0,0,0,0,0,0,0,1,0
57,"1","met",2,"response_response",7,4,2,5,2,7,30,29,28,0,94,7,0,10300,1,1,0,0,0,0,0,0,0,0,2,0
57,"1","met",2,"response_response",11,4,3,3,1,11,12,9,7,0,39,40,0,4807,0,2,0,0,0,0,1,0,0,0,2,0
57,"1","met",2,"response_response",14,4,4,3,2,7,9,15,9,0,40,30,0,4420,0,2,0,0,0,0,2,0,0,0,2,0
57,"1","met",2,"response_response",17,4,5,3,3,14,8,11,12,0,45,55,0,6882,0,2,0,0,0,0,3,0,0,0,2,0
57,"1","met",2,"response_response",20,4,6,3,4,10,11,11,10,0,42,42,1,7019,1,2,0,0,0,0,4,1,0,0,2,0
57,"1","met",2,"response_response",24,4,7,4,1,10,21,17,8,0,56,56,1,3998,0,3,0,0,0,0,4,1,1,1,2,0
57,"1","met",2,"response_response",27,4,8,4,2,17,9,13,25,0,64,64,1,6826,0,3,0,0,0,0,4,1,2,2,2,0
57,"1","met",2,"response_response",30,4,9,4,3,19,25,15,18,0,77,78,0,7589,0,3,0,0,0,0,4,1,3,2,2,0
57,"1","met",2,"response_response",33,4,10,4,4,24,21,16,13,0,74,97,0,6947,0,3,0,0,0,0,4,1,4,2,2,0
57,"1","met",2,"response_response",36,4,11,4,5,15,13,24,17,0,69,66,0,6424,0,3,0,0,0,0,4,1,5,2,2,0
57,"1","met",2,"response_response",40,4,12,4,1,25,22,7,25,0,79,79,1,8616,0,3,0,0,0,0,4,1,6,3,2,0
57,"1","met",2,"response_response",43,4,13,4,2,11,13,17,9,0,50,50,1,7745,0,3,0,0,0,0,4,1,7,4,2,0
57,"1","met",2,"response_response",46,4,14,4,3,18,17,8,15,0,58,58,1,6341,0,3,0,0,0,0,4,1,8,5,2,0
57,"1","met",2,"response_response",49,4,15,4,4,21,15,14,11,0,61,61,1,3554,0,3,0,0,0,0,4,1,9,6,2,0
57,"1","met",2,"response_response",52,4,16,4,5,7,10,23,17,0,57,48,0,6903,0,3,0,0,0,0,4,1,10,6,2,0
57,"1","met",2,"response_response",56,4,17,4,1,22,14,11,24,0,71,71,1,8182,0,3,0,0,0,0,4,1,11,7,2,0
57,"1","met",2,"response_response",59,4,18,4,2,8,25,10,9,0,52,52,1,4179,0,3,0,0,0,0,4,1,12,8,2,0
57,"1","met",2,"response_response",62,4,19,4,3,9,18,13,25,0,65,65,1,4084,0,3,0,0,0,0,4,1,13,9,2,0
57,"1","met",2,"response_response",65,4,20,4,4,25,14,19,14,0,72,72,1,5504,0,3,0,0,0,0,4,1,14,10,2,0
57,"1","met",2,"response_response",68,4,21,4,5,24,10,21,10,0,65,65,1,5096,0,3,0,0,0,0,4,1,15,11,2,0
57,"1","met",2,"response_response",72,4,22,4,1,13,13,22,25,0,73,73,1,7589,0,3,0,0,0,0,4,1,16,12,2,0
57,"1","met",2,"response_response",75,4,23,4,2,21,23,9,17,0,70,5,0,10300,0,3,0,0,0,0,4,1,17,12,2,0
57,"1","met",2,"response_response",78,4,24,4,3,17,22,16,17,0,72,72,1,7645,0,3,0,0,0,0,4,1,18,13,2,0
57,"1","met",2,"response_response",81,4,25,4,4,25,21,23,8,0,77,77,1,6508,0,3,0,0,0,0,4,1,19,14,2,0
57,"1","met",2,"response_response",84,4,26,4,5,24,9,11,16,0,60,60,1,8591,0,3,0,0,0,0,4,1,20,15,2,0
57,"1","met",2,"response_response",88,4,27,4,1,14,19,14,16,0,63,63,1,5045,0,3,0,0,0,0,4,1,21,16,2,0
57,"1","met",2,"response_response",91,4,28,4,2,11,16,22,14,0,63,63,1,5267,0,3,0,0,0,0,4,1,22,17,2,0
57,"1","met",2,"response_response",94,4,29,4,3,25,14,20,14,0,73,73,1,4470,0,3,0,0,0,0,4,1,23,18,2,0
57,"1","met",2,"response_response",97,4,30,4,4,8,21,13,25,0,67,66,0,3612,0,3,0,0,0,0,4,1,24,18,2,0
57,"1","met",2,"response_response",100,4,31,4,5,23,20,16,14,0,73,83,0,5517,0,3,0,0,0,0,4,1,25,18,2,0
57,"1","met",2,"response_response",104,4,32,4,1,9,16,14,8,0,47,47,1,7712,0,3,0,0,0,0,4,1,26,19,2,0
57,"1","met",2,"response_response",107,4,33,4,2,14,12,16,7,0,49,49,1,7641,0,3,0,0,0,0,4,1,27,20,2,0
57,"1","met",2,"response_response",110,4,34,4,3,24,21,17,23,0,85,95,0,5879,0,3,0,0,0,0,4,1,28,20,2,0
57,"1","met",2,"response_response",113,4,35,4,4,16,12,22,24,0,74,64,0,5374,0,3,0,0,0,0,4,1,29,20,2,0
57,"1","met",2,"response_response",116,4,36,4,5,22,14,8,14,0,58,58,1,6791,0,3,0,0,0,0,4,1,30,21,2,0
57,"1","met",2,"response_response",120,4,37,3,1,13,11,12,13,0,49,54,0,7448,0,4,0,0,0,0,5,1,30,21,2,0
57,"1","met",2,"response_response",123,4,38,3,2,15,10,13,14,0,52,52,1,10042,0,4,0,0,0,0,6,2,30,21,2,0
57,"1","met",2,"response_response",126,4,39,3,3,11,14,11,15,0,51,51,1,6525,0,4,0,0,0,0,7,3,30,21,2,0
57,"1","met",2,"response_response",129,4,40,3,4,13,7,14,15,0,49,49,1,4859,0,4,0,0,0,0,8,4,30,21,2,0
57,"1","met",2,"response_response",132,4,41,3,5,8,15,9,10,0,42,42,1,5106,0,4,0,0,0,0,9,5,30,21,2,0
57,"1","met",2,"response_response",136,4,42,3,1,14,8,13,9,0,44,47,0,10300,0,4,0,0,0,0,10,5,30,21,2,0
57,"1","met",2,"response_response",139,4,43,3,2,7,10,8,14,0,39,29,0,5092,0,4,0,0,0,0,11,5,30,21,2,0
57,"1","met",2,"response_response",142,4,44,3,3,13,14,8,11,0,46,46,1,3625,0,4,0,0,0,0,12,6,30,21,2,0
57,"1","met",2,"response_response",145,4,45,3,4,8,12,7,15,0,42,42,1,5388,0,4,0,0,0,0,13,7,30,21,2,0
57,"1","met",2,"response_response",148,4,46,3,5,15,11,10,7,0,43,43,1,4125,0,4,0,0,0,0,14,8,30,21,2,0
57,"1","met",2,"response_response",152,4,47,3,1,15,15,11,14,0,55,55,1,3161,0,4,0,0,0,0,15,9,30,21,2,0
57,"1","met",2,"response_response",155,4,48,3,2,11,13,15,12,0,51,51,1,4577,0,4,0,0,0,0,16,10,30,21,2,0
57,"1","met",2,"response_response",158,4,49,3,3,15,8,9,15,0,47,47,1,4906,0,4,0,0,0,0,17,11,30,21,2,0
57,"1","met",2,"response_response",161,4,50,3,4,13,7,13,8,0,41,41,1,3453,0,4,0,0,0,0,18,12,30,21,2,0
3,"1","met",2,"response_response",4,4,1,5,1,35,29,26,30,0,120,114,0,9848,0,1,0,0,0,0,0,0,0,0,1,0
3,"1","met",2,"response_response",7,4,2,5,2,14,29,29,11,0,83,73,0,3558,0,1,0,0,0,0,0,0,0,0,2,0
3,"1","met",2,"response_response",10,4,3,5,3,27,10,11,26,0,74,74,1,3833,0,1,0,0,0,0,0,0,0,0,3,1
3,"1","met",2,"response_response",13,4,4,5,4,23,35,20,31,0,109,109,1,5840,0,1,0,0,0,0,0,0,0,0,4,2
3,"1","met",2,"response_response",16,4,5,5,5,8,22,15,18,0,63,63,1,4135,0,1,0,0,0,0,0,0,0,0,5,3
3,"1","met",2,"response_response",20,4,6,4,1,13,24,16,13,0,66,66,1,2768,0,2,0,0,0,0,0,0,1,1,5,3
3,"1","met",2,"response_response",23,4,7,4,2,15,10,12,25,0,62,62,1,3405,0,2,0,0,0,0,0,0,2,2,5,3
3,"1","met",2,"response_response",26,4,8,4,3,16,8,13,7,0,44,44,1,3839,0,2,0,0,0,0,0,0,3,3,5,3
3,"1","met",2,"response_response",29,4,9,4,4,22,18,18,22,0,80,80,1,4230,0,2,0,0,0,0,0,0,4,4,5,3
3,"1","met",2,"response_response",32,4,10,4,5,23,17,7,22,0,69,69,1,5718,0,2,0,0,0,0,0,0,5,5,5,3
3,"1","met",2,"response_response",36,4,11,4,1,19,10,19,15,0,63,63,1,7462,0,2,0,0,0,0,0,0,6,6,5,3
3,"1","met",2,"response_response",39,4,12,4,2,14,23,12,24,0,73,71,0,3505,0,2,0,0,0,0,0,0,7,6,5,3
3,"1","met",2,"response_response",42,4,13,4,3,22,12,9,14,0,57,57,1,3532,0,2,0,0,0,0,0,0,8,7,5,3
3,"1","met",2,"response_response",45,4,14,4,4,12,17,11,10,0,50,50,1,3939,0,2,0,0,0,0,0,0,9,8,5,3
3,"1","met",2,"response_response",48,4,15,4,5,18,18,22,24,0,82,82,1,5508,0,2,0,0,0,0,0,0,10,9,5,3
3,"1","met",2,"response_response",52,4,16,4,1,7,21,10,17,0,55,55,1,4075,0,2,0,0,0,0,0,0,11,10,5,3
3,"1","met",2,"response_response",55,4,17,4,2,18,13,24,12,0,67,67,1,3458,0,2,0,0,0,0,0,0,12,11,5,3
3,"1","met",2,"response_response",58,4,18,4,3,22,25,22,18,0,87,87,1,7171,0,2,0,0,0,0,0,0,13,12,5,3
3,"1","met",2,"response_response",61,4,19,4,4,14,16,17,22,0,69,69,1,4138,0,2,0,0,0,0,0,0,14,13,5,3
3,"1","met",2,"response_response",64,4,20,4,5,18,16,10,10,0,54,54,1,3424,0,2,0,0,0,0,0,0,15,14,5,3
3,"1","met",2,"response_response",68,4,21,3,1,7,7,11,10,0,35,35,1,5817,1,3,0,0,0,0,1,1,15,14,5,3
3,"1","met",2,"response_response",72,4,22,4,1,16,9,20,20,0,65,65,1,3207,0,4,0,0,0,0,1,1,16,15,5,3
3,"1","met",2,"response_response",75,4,23,4,2,16,22,9,9,0,56,56,1,2518,0,4,0,0,0,0,1,1,17,16,5,3
3,"1","met",2,"response_response",78,4,24,4,3,24,7,11,25,0,67,57,0,2851,0,4,0,0,0,0,1,1,18,16,5,3
3,"1","met",2,"response_response",81,4,25,4,4,21,8,8,14,0,51,51,1,3400,0,4,0,0,0,0,1,1,19,17,5,3
3,"1","met",2,"response_response",84,4,26,4,5,16,21,11,11,0,59,59,1,2530,0,4,0,0,0,0,1,1,20,18,5,3
3,"1","met",2,"response_response",88,4,27,4,1,8,13,8,16,0,45,45,1,3072,0,4,0,0,0,0,1,1,21,19,5,3
3,"1","met",2,"response_response",91,4,28,4,2,18,10,10,18,0,56,56,1,2973,0,4,0,0,0,0,1,1,22,20,5,3
3,"1","met",2,"response_response",94,4,29,4,3,17,8,11,20,0,56,56,1,2223,0,4,0,0,0,0,1,1,23,21,5,3
3,"1","met",2,"response_response",97,4,30,4,4,12,15,11,16,0,54,54,1,3150,0,4,0,0,0,0,1,1,24,22,5,3
3,"1","met",2,"response_response",100,4,31,4,5,12,25,25,12,0,74,74,1,7813,0,4,0,0,0,0,1,1,25,23,5,3
3,"1","met",2,"response_response",104,4,32,4,1,13,15,7,22,0,57,57,1,2904,0,4,0,0,0,0,1,1,26,24,5,3
3,"1","met",2,"response_response",107,4,33,4,2,16,12,14,18,0,60,60,1,3167,0,4,0,0,0,0,1,1,27,25,5,3
3,"1","met",2,"response_response",110,4,34,4,3,12,22,7,19,0,60,60,1,3256,0,4,0,0,0,0,1,1,28,26,5,3
3,"1","met",2,"response_response",113,4,35,4,4,11,8,24,20,0,63,63,1,5988,0,4,0,0,0,0,1,1,29,27,5,3
3,"1","met",2,"response_response",116,4,36,4,5,17,21,14,18,0,70,70,1,7832,0,4,0,0,0,0,1,1,30,28,5,3
3,"1","met",2,"response_response",120,4,37,3,1,10,11,10,9,0,40,40,1,2276,0,5,0,0,0,0,2,2,30,28,5,3
3,"1","met",2,"response_response",123,4,38,3,2,10,13,10,8,0,41,42,0,3158,0,5,0,0,0,0,3,2,30,28,5,3
3,"1","met",2,"response_response",126,4,39,3,3,12,10,14,10,0,46,46,1,2335,0,5,0,0,0,0,4,3,30,28,5,3
3,"1","met",2,"response_response",129,4,40,3,4,7,9,13,12,0,41,41,1,3275,0,5,0,0,0,0,5,4,30,28,5,3
3,"1","met",2,"response_response",132,4,41,3,5,7,7,13,14,0,41,41,1,3675,0,5,0,0,0,0,6,5,30,28,5,3
3,"1","met",2,"response_response",136,4,42,3,1,11,11,7,14,0,43,43,1,3071,0,5,0,0,0,0,7,6,30,28,5,3
3,"1","met",2,"response_response",139,4,43,3,2,13,14,15,11,0,53,53,1,3444,0,5,0,0,0,0,8,7,30,28,5,3
3,"1","met",2,"response_response",142,4,44,3,3,12,13,10,12,0,47,47,1,3033,0,5,0,0,0,0,9,8,30,28,5,3
3,"1","met",2,"response_response",145,4,45,3,4,7,12,14,7,0,40,40,1,2337,0,5,0,0,0,0,10,9,30,28,5,3
3,"1","met",2,"response_response",148,4,46,3,5,14,8,15,13,0,50,50,1,2227,0,5,0,0,0,0,11,10,30,28,5,3
3,"1","met",2,"response_response",152,4,47,4,1,15,16,14,8,0,53,53,1,5757,0,6,0,0,0,0,11,10,31,29,5,3
3,"1","met",2,"response_response",155,4,48,4,2,9,11,18,23,0,61,61,1,3751,0,6,0,0,0,0,11,10,32,30,5,3
3,"1","met",2,"response_response",158,4,49,4,3,23,16,25,17,0,81,81,1,8979,0,6,0,0,0,0,11,10,33,31,5,3
3,"1","met",2,"response_response",161,4,50,4,4,13,22,21,19,0,75,75,1,4763,0,6,0,0,0,0,11,10,34,32,5,3
108,"2","met",2,"response_response",4,4,1,1,1,2,3,3,1,0,9,9,1,2811,0,1,1,1,0,0,0,0,0,0,0,0
108,"2","met",2,"response_response",7,4,2,1,2,2,2,3,2,0,9,9,1,3841,0,1,2,2,0,0,0,0,0,0,0,0
108,"2","met",2,"response_response",10,4,3,1,3,3,3,1,2,0,9,9,1,2447,0,1,3,3,0,0,0,0,0,0,0,0
108,"2","met",2,"response_response",13,4,4,1,4,1,1,2,2,0,6,6,1,2815,0,1,4,4,0,0,0,0,0,0,0,0
108,"2","met",2,"response_response",16,4,5,1,5,1,2,1,1,0,5,5,1,4123,1,1,5,5,0,0,0,0,0,0,0,0
108,"2","met",2,"response_response",20,4,6,2,1,5,4,6,8,0,23,23,1,3662,0,2,5,5,1,1,0,0,0,0,0,0
108,"2","met",2,"response_response",23,4,7,2,2,5,8,9,8,0,30,29,0,3358,0,2,5,5,2,1,0,0,0,0,0,0
108,"2","met",2,"response_response",26,4,8,2,3,3,6,3,6,0,18,18,1,3377,0,2,5,5,3,2,0,0,0,0,0,0
108,"2","met",2,"response_response",29,4,9,2,4,4,6,6,3,0,19,19,1,2719,0,2,5,5,4,3,0,0,0,0,0,0
108,"2","met",2,"response_response",32,4,10,2,5,9,6,8,8,0,31,31,1,2896,0,2,5,5,5,4,0,0,0,0,0,0
108,"2","met",2,"response_response",36,4,11,2,1,3,8,8,8,0,27,27,1,3032,0,2,5,5,6,5,0,0,0,0,0,0
108,"2","met",2,"response_response",39,4,12,2,2,6,9,3,4,0,22,22,1,2745,0,2,5,5,7,6,0,0,0,0,0,0
108,"2","met",2,"response_response",42,4,13,2,3,7,5,4,8,0,24,24,1,2766,0,2,5,5,8,7,0,0,0,0,0,0
108,"2","met",2,"response_response",45,4,14,2,4,9,6,9,9,0,33,33,1,2966,0,2,5,5,9,8,0,0,0,0,0,0
108,"2","met",2,"response_response",48,4,15,2,5,7,8,6,8,0,29,29,1,3932,0,2,5,5,10,9,0,0,0,0,0,0
108,"2","met",2,"response_response",52,4,16,3,1,12,13,8,9,0,42,43,0,10300,0,3,5,5,10,9,1,0,0,0,0,0
108,"2","met",2,"response_response",55,4,17,3,2,14,15,9,9,0,47,47,1,5134,0,3,5,5,10,9,2,1,0,0,0,0
108,"2","met",2,"response_response",58,4,18,3,3,11,8,10,12,0,41,41,1,6541,0,3,5,5,10,9,3,2,0,0,0,0
108,"2","met",2,"response_response",61,4,19,3,4,9,9,8,7,0,33,33,1,4814,0,3,5,5,10,9,4,3,0,0,0,0
108,"2","met",2,"response_response",64,4,20,3,5,9,10,12,12,0,43,43,1,6273,0,3,5,5,10,9,5,4,0,0,0,0
108,"2","met",2,"response_response",68,4,21,2,1,4,7,5,6,0,22,23,0,5049,0,4,5,5,11,9,5,4,0,0,0,0
108,"2","met",2,"response_response",71,4,22,2,2,7,8,6,3,0,24,24,1,2939,0,4,5,5,12,10,5,4,0,0,0,0
108,"2","met",2,"response_response",74,4,23,2,3,4,3,4,5,0,16,16,1,3922,0,4,5,5,13,11,5,4,0,0,0,0
108,"2","met",2,"response_response",77,4,24,2,4,3,6,7,6,0,22,22,1,2976,0,4,5,5,14,12,5,4,0,0,0,0
108,"2","met",2,"response_response",80,4,25,2,5,3,3,7,8,0,21,21,1,5344,0,4,5,5,15,13,5,4,0,0,0,0
108,"2","met",2,"response_response",84,4,26,3,1,12,13,11,9,0,45,45,1,6470,0,5,5,5,15,13,6,5,0,0,0,0
108,"2","met",2,"response_response",87,4,27,3,2,13,15,15,11,0,54,54,1,6970,0,5,5,5,15,13,7,6,0,0,0,0
108,"2","met",2,"response_response",90,4,28,3,3,10,8,7,8,0,33,32,0,8436,0,5,5,5,15,13,8,6,0,0,0,0
108,"2","met",2,"response_response",93,4,29,3,4,9,10,13,13,0,45,43,0,7265,0,5,5,5,15,13,9,6,0,0,0,0
108,"2","met",2,"response_response",96,4,30,3,5,7,7,10,14,0,38,38,1,3728,0,5,5,5,15,13,10,7,0,0,0,0
108,"2","met",2,"response_response",100,4,31,3,1,10,9,10,15,0,44,34,0,3005,0,5,5,5,15,13,11,7,0,0,0,0
108,"2","met",2,"response_response",103,4,32,3,2,11,11,9,11,0,42,42,1,5391,0,5,5,5,15,13,12,8,0,0,0,0
108,"2","met",2,"response_response",106,4,33,3,3,10,8,8,15,0,41,39,0,4912,0,5,5,5,15,13,13,8,0,0,0,0
108,"2","met",2,"response_response",109,4,34,3,4,13,8,12,7,0,40,40,1,3930,0,5,5,5,15,13,14,9,0,0,0,0
108,"2","met",2,"response_response",112,4,35,3,5,8,13,8,7,0,36,36,1,2373,0,5,5,5,15,13,15,10,0,0,0,0
108,"2","met",2,"response_response",116,4,36,2,1,8,7,6,4,0,25,25,1,3605,0,6,5,5,16,14,15,10,0,0,0,0
108,"2","met",2,"response_response",119,4,37,2,2,5,3,4,9,0,21,21,1,6531,0,6,5,5,17,15,15,10,0,0,0,0
108,"2","met",2,"response_response",122,4,38,2,3,4,9,9,8,0,30,30,1,3648,0,6,5,5,18,16,15,10,0,0,0,0
108,"2","met",2,"response_response",125,4,39,2,4,4,4,9,4,0,21,21,1,2173,0,6,5,5,19,17,15,10,0,0,0,0
108,"2","met",2,"response_response",128,4,40,2,5,7,9,6,8,0,30,30,1,6147,1,6,5,5,20,18,15,10,0,0,0,0
108,"2","met",2,"response_response",132,4,41,3,1,14,10,9,8,0,41,41,1,6629,0,7,5,5,20,18,16,11,0,0,0,0
108,"2","met",2,"response_response",135,4,42,3,2,10,11,12,12,0,45,45,1,2929,0,7,5,5,20,18,17,12,0,0,0,0
108,"2","met",2,"response_response",138,4,43,3,3,8,15,10,10,0,43,43,1,6701,0,7,5,5,20,18,18,13,0,0,0,0
108,"2","met",2,"response_response",141,4,44,3,4,14,12,11,8,0,45,45,1,2741,0,7,5,5,20,18,19,14,0,0,0,0
108,"2","met",2,"response_response",144,4,45,3,5,10,14,12,8,0,44,44,1,4605,0,7,5,5,20,18,20,15,0,0,0,0
108,"2","met",2,"response_response",148,4,46,3,1,9,9,8,12,0,38,38,1,5387,0,7,5,5,20,18,21,16,0,0,0,0
108,"2","met",2,"response_response",151,4,47,3,2,11,7,14,12,0,44,42,0,4238,0,7,5,5,20,18,22,16,0,0,0,0
108,"2","met",2,"response_response",154,4,48,3,3,9,13,13,9,0,44,43,0,3233,0,7,5,5,20,18,23,16,0,0,0,0
108,"2","met",2,"response_response",157,4,49,3,4,10,13,12,10,0,45,45,1,4058,0,7,5,5,20,18,24,17,0,0,0,0
108,"2","met",2,"response_response",160,4,50,3,5,15,7,7,13,0,42,43,0,2581,0,7,5,5,20,18,25,17,0,0,0,0
74,"1","met",2,"response_response",4,4,1,2,1,8,5,8,4,0,25,25,1,10300,0,1,0,0,1,1,0,0,0,0,0,0
74,"1","met",2,"response_response",7,4,2,2,2,7,5,6,8,0,26,26,1,5166,0,1,0,0,2,2,0,0,0,0,0,0
74,"1","met",2,"response_response",10,4,3,2,3,8,8,9,6,0,31,31,1,4818,0,1,0,0,3,3,0,0,0,0,0,0
74,"1","met",2,"response_response",13,4,4,2,4,9,8,3,7,0,27,27,1,5484,0,1,0,0,4,4,0,0,0,0,0,0
74,"1","met",2,"response_response",16,4,5,2,5,8,3,6,5,0,22,22,1,4369,0,1,0,0,5,5,0,0,0,0,0,0
74,"1","met",2,"response_response",20,4,6,2,1,8,6,4,8,0,26,26,1,5088,0,1,0,0,6,6,0,0,0,0,0,0
74,"1","met",2,"response_response",23,4,7,2,2,8,8,9,7,0,32,32,1,10299,0,1,0,0,7,7,0,0,0,0,0,0
74,"1","met",2,"response_response",26,4,8,2,3,4,4,9,6,0,23,33,0,3050,0,1,0,0,8,7,0,0,0,0,0,0
74,"1","met",2,"response_response",29,4,9,2,4,3,7,9,3,0,22,22,1,3387,0,1,0,0,9,8,0,0,0,0,0,0
74,"1","met",2,"response_response",32,4,10,2,5,3,8,6,6,0,23,23,1,2933,0,1,0,0,10,9,0,0,0,0,0,0
74,"1","met",2,"response_response",36,4,11,3,1,11,12,15,7,0,45,NA,0,10300,0,2,0,0,10,9,1,0,0,0,0,0
74,"1","met",2,"response_response",39,4,12,3,2,11,10,7,12,0,40,40,1,5566,0,2,0,0,10,9,2,1,0,0,0,0
74,"1","met",2,"response_response",42,4,13,3,3,14,14,10,7,0,45,45,1,4635,0,2,0,0,10,9,3,2,0,0,0,0
74,"1","met",2,"response_response",45,4,14,3,4,14,13,13,9,0,49,NA,0,10300,1,2,0,0,10,9,4,2,0,0,0,0
74,"1","met",2,"response_response",49,4,15,2,1,6,6,4,5,0,21,21,1,3654,0,3,0,0,11,10,4,2,0,0,0,0
74,"1","met",2,"response_response",52,4,16,2,2,6,6,8,3,0,23,23,1,2109,0,3,0,0,12,11,4,2,0,0,0,0
74,"1","met",2,"response_response",55,4,17,2,3,7,4,3,6,0,20,20,1,4569,0,3,0,0,13,12,4,2,0,0,0,0
74,"1","met",2,"response_response",58,4,18,2,4,7,4,9,5,0,25,25,1,2282,0,3,0,0,14,13,4,2,0,0,0,0
74,"1","met",2,"response_response",61,4,19,2,5,9,3,9,7,0,28,28,1,3362,0,3,0,0,15,14,4,2,0,0,0,0
74,"1","met",2,"response_response",65,4,20,2,1,3,6,5,9,0,23,23,1,3832,0,3,0,0,16,15,4,2,0,0,0,0
74,"1","met",2,"response_response",68,4,21,2,2,5,8,3,9,0,25,25,1,5227,0,3,0,0,17,16,4,2,0,0,0,0
74,"1","met",2,"response_response",71,4,22,2,3,8,3,9,3,0,23,23,1,2961,0,3,0,0,18,17,4,2,0,0,0,0
74,"1","met",2,"response_response",74,4,23,2,4,5,8,8,3,0,24,24,1,3751,0,3,0,0,19,18,4,2,0,0,0,0
74,"1","met",2,"response_response",77,4,24,2,5,9,3,8,8,0,28,28,1,3294,0,3,0,0,20,19,4,2,0,0,0,0
74,"1","met",2,"response_response",81,4,25,2,1,6,5,8,3,0,22,22,1,2391,0,3,0,0,21,20,4,2,0,0,0,0
74,"1","met",2,"response_response",84,4,26,2,2,3,8,3,8,0,22,22,1,4566,0,3,0,0,22,21,4,2,0,0,0,0
74,"1","met",2,"response_response",87,4,27,2,3,5,7,9,9,0,30,30,1,2994,0,3,0,0,23,22,4,2,0,0,0,0
74,"1","met",2,"response_response",90,4,28,2,4,9,6,6,4,0,25,25,1,3030,0,3,0,0,24,23,4,2,0,0,0,0
74,"1","met",2,"response_response",93,4,29,2,5,7,3,8,4,0,22,22,1,1724,0,3,0,0,25,24,4,2,0,0,0,0
74,"1","met",2,"response_response",97,4,30,2,1,9,6,7,6,0,28,28,1,2999,0,3,0,0,26,25,4,2,0,0,0,0
74,"1","met",2,"response_response",100,4,31,2,2,3,3,3,9,0,18,18,1,4111,0,3,0,0,27,26,4,2,0,0,0,0
74,"1","met",2,"response_response",103,4,32,2,3,7,9,6,9,0,31,31,1,6488,0,3,0,0,28,27,4,2,0,0,0,0
74,"1","met",2,"response_response",106,4,33,2,4,6,3,9,9,0,27,27,1,3318,0,3,0,0,29,28,4,2,0,0,0,0
74,"1","met",2,"response_response",109,4,34,2,5,4,6,4,8,0,22,22,1,3098,0,3,0,0,30,29,4,2,0,0,0,0
74,"1","met",2,"response_response",113,4,35,3,1,12,11,7,12,0,42,42,1,5303,0,4,0,0,30,29,5,3,0,0,0,0
74,"1","met",2,"response_response",116,4,36,3,2,8,13,14,13,0,48,48,1,8914,0,4,0,0,30,29,6,4,0,0,0,0
74,"1","met",2,"response_response",119,4,37,3,3,8,7,15,13,0,43,43,1,5167,0,4,0,0,30,29,7,5,0,0,0,0
74,"1","met",2,"response_response",122,4,38,3,4,10,8,10,12,0,40,40,1,6491,0,4,0,0,30,29,8,6,0,0,0,0
74,"1","met",2,"response_response",125,4,39,3,5,12,11,14,14,0,51,NA,0,10300,0,4,0,0,30,29,9,6,0,0,0,0
74,"1","met",2,"response_response",129,4,40,3,1,8,11,8,14,0,41,41,1,8850,0,4,0,0,30,29,10,7,0,0,0,0
74,"1","met",2,"response_response",132,4,41,3,2,13,8,9,12,0,42,42,1,2790,0,4,0,0,30,29,11,8,0,0,0,0
74,"1","met",2,"response_response",135,4,42,3,3,12,9,10,13,0,44,44,1,5056,0,4,0,0,30,29,12,9,0,0,0,0
74,"1","met",2,"response_response",138,4,43,3,4,10,13,7,11,0,41,41,1,4132,0,4,0,0,30,29,13,10,0,0,0,0
74,"1","met",2,"response_response",141,4,44,3,5,13,8,11,7,0,39,39,1,8609,0,4,0,0,30,29,14,11,0,0,0,0
74,"1","met",2,"response_response",145,4,45,3,1,11,15,7,9,0,42,42,1,7277,0,4,0,0,30,29,15,12,0,0,0,0
74,"1","met",2,"response_response",148,4,46,3,2,12,14,15,7,0,48,48,1,8644,0,4,0,0,30,29,16,13,0,0,0,0
74,"1","met",2,"response_response",151,4,47,3,3,13,7,12,13,0,45,45,1,3664,0,4,0,0,30,29,17,14,0,0,0,0
74,"1","met",2,"response_response",154,4,48,3,4,9,11,10,11,0,41,41,1,2361,0,4,0,0,30,29,18,15,0,0,0,0
74,"1","met",2,"response_response",157,4,49,3,5,13,14,15,11,0,53,53,1,8836,0,4,0,0,30,29,19,16,0,0,0,0
74,"1","met",2,"response_response",161,4,50,3,1,13,14,13,8,0,48,48,1,7865,0,4,0,0,30,29,20,17,0,0,0,0
101,"1","met",2,"response_response",4,4,1,2,1,3,6,7,8,0,24,24,1,4754,0,1,0,0,1,1,0,0,0,0,0,0
101,"1","met",2,"response_response",7,4,2,2,2,7,7,8,8,0,30,30,1,2932,0,1,0,0,2,2,0,0,0,0,0,0
101,"1","met",2,"response_response",10,4,3,2,3,7,7,5,9,0,28,28,1,2589,0,1,0,0,3,3,0,0,0,0,0,0
101,"1","met",2,"response_response",13,4,4,2,4,7,6,4,9,0,26,26,1,2726,0,1,0,0,4,4,0,0,0,0,0,0
101,"1","met",2,"response_response",16,4,5,2,5,9,9,7,7,0,32,32,1,3709,0,1,0,0,5,5,0,0,0,0,0,0
101,"1","met",2,"response_response",20,4,6,3,1,15,14,13,13,0,55,45,0,6720,0,2,0,0,5,5,1,0,0,0,0,0
101,"1","met",2,"response_response",23,4,7,3,2,14,12,11,15,0,52,52,1,10300,0,2,0,0,5,5,2,1,0,0,0,0
101,"1","met",2,"response_response",26,4,8,3,3,9,10,14,12,0,45,45,1,2903,0,2,0,0,5,5,3,2,0,0,0,0
101,"1","met",2,"response_response",29,4,9,3,4,12,10,12,9,0,43,43,1,2986,0,2,0,0,5,5,4,3,0,0,0,0
101,"1","met",2,"response_response",32,4,10,3,5,14,11,8,9,0,42,42,1,5017,0,2,0,0,5,5,5,4,0,0,0,0
101,"1","met",2,"response_response",36,4,11,4,1,18,21,15,10,0,64,NA,0,5614,1,3,0,0,5,5,5,4,1,0,0,0
101,"1","met",2,"response_response",40,4,12,3,1,10,11,12,7,0,40,41,0,9328,0,4,0,0,5,5,6,4,1,0,0,0
101,"1","met",2,"response_response",43,4,13,3,2,10,13,11,11,0,45,45,1,2620,0,4,0,0,5,5,7,5,1,0,0,0
101,"1","met",2,"response_response",46,4,14,3,3,12,8,15,10,0,45,45,1,3859,0,4,0,0,5,5,8,6,1,0,0,0
101,"1","met",2,"response_response",49,4,15,3,4,15,11,8,10,0,44,44,1,2922,0,4,0,0,5,5,9,7,1,0,0,0
101,"1","met",2,"response_response",52,4,16,3,5,8,7,12,15,0,42,42,1,2893,0,4,0,0,5,5,10,8,1,0,0,0
101,"1","met",2,"response_response",56,4,17,4,1,14,20,9,11,0,54,54,1,4340,0,5,0,0,5,5,10,8,2,1,0,0
101,"1","met",2,"response_response",59,4,18,4,2,11,21,13,22,0,67,67,1,3494,0,5,0,0,5,5,10,8,3,2,0,0
101,"1","met",2,"response_response",62,4,19,4,3,10,9,7,16,0,42,32,0,2715,0,5,0,0,5,5,10,8,4,2,0,0
101,"1","met",2,"response_response",65,4,20,4,4,10,21,8,19,0,58,54,0,8363,0,5,0,0,5,5,10,8,5,2,0,0
101,"1","met",2,"response_response",68,4,21,4,5,17,7,18,17,0,59,59,1,5383,0,5,0,0,5,5,10,8,6,3,0,0
101,"1","met",2,"response_response",72,4,22,4,1,11,8,7,13,0,39,39,1,2402,0,5,0,0,5,5,10,8,7,4,0,0
101,"1","met",2,"response_response",75,4,23,4,2,17,15,16,17,0,65,65,1,5277,0,5,0,0,5,5,10,8,8,5,0,0
101,"1","met",2,"response_response",78,4,24,4,3,22,20,21,9,0,72,72,1,4221,0,5,0,0,5,5,10,8,9,6,0,0
101,"1","met",2,"response_response",81,4,25,4,4,21,20,16,18,0,75,75,1,8353,0,5,0,0,5,5,10,8,10,7,0,0
101,"1","met",2,"response_response",84,4,26,4,5,24,17,22,8,0,71,70,0,6360,0,5,0,0,5,5,10,8,11,7,0,0
101,"1","met",2,"response_response",88,4,27,5,1,21,32,32,31,0,116,1,0,10300,0,6,0,0,5,5,10,8,11,7,1,0
101,"1","met",2,"response_response",91,4,28,5,2,7,11,19,32,0,69,69,1,3591,0,6,0,0,5,5,10,8,11,7,2,1
101,"1","met",2,"response_response",94,4,29,5,3,7,14,29,33,0,83,83,1,8369,0,6,0,0,5,5,10,8,11,7,3,2
101,"1","met",2,"response_response",97,4,30,5,4,18,18,7,28,0,71,71,1,6542,0,6,0,0,5,5,10,8,11,7,4,3
101,"1","met",2,"response_response",100,4,31,5,5,9,11,18,16,0,54,54,1,6592,0,6,0,0,5,5,10,8,11,7,5,4
101,"1","met",2,"response_response",104,4,32,5,1,13,33,18,19,0,83,73,0,10300,0,6,0,0,5,5,10,8,11,7,6,4
101,"1","met",2,"response_response",107,4,33,5,2,17,32,26,17,0,92,92,1,7939,0,6,0,0,5,5,10,8,11,7,7,5
101,"1","met",2,"response_response",110,4,34,5,3,9,21,28,15,0,73,73,1,4744,0,6,0,0,5,5,10,8,11,7,8,6
101,"1","met",2,"response_response",113,4,35,5,4,25,28,23,21,0,97,97,1,8083,0,6,0,0,5,5,10,8,11,7,9,7
101,"1","met",2,"response_response",116,4,36,5,5,9,17,29,29,0,84,84,1,6083,0,6,0,0,5,5,10,8,11,7,10,8
101,"1","met",2,"response_response",120,4,37,5,1,26,8,25,24,0,83,83,1,10043,0,6,0,0,5,5,10,8,11,7,11,9
101,"1","met",2,"response_response",123,4,38,5,2,31,24,17,23,0,95,99,0,7997,0,6,0,0,5,5,10,8,11,7,12,9
101,"1","met",2,"response_response",126,4,39,5,3,33,23,14,23,0,93,93,1,2721,0,6,0,0,5,5,10,8,11,7,13,10
101,"1","met",2,"response_response",129,4,40,5,4,8,7,25,14,0,54,54,1,4142,0,6,0,0,5,5,10,8,11,7,14,11
101,"1","met",2,"response_response",132,4,41,5,5,34,9,12,25,0,80,79,0,5907,0,6,0,0,5,5,10,8,11,7,15,11
101,"1","met",2,"response_response",136,4,42,5,1,23,16,7,28,0,74,74,1,3084,0,6,0,0,5,5,10,8,11,7,16,12
101,"1","met",2,"response_response",139,4,43,5,2,22,22,14,19,0,77,76,0,10009,0,6,0,0,5,5,10,8,11,7,17,12
101,"1","met",2,"response_response",142,4,44,5,3,14,27,30,21,0,92,92,1,2205,0,6,0,0,5,5,10,8,11,7,18,13
101,"1","met",2,"response_response",145,4,45,5,4,10,34,26,19,0,89,89,1,2344,0,6,0,0,5,5,10,8,11,7,19,14
101,"1","met",2,"response_response",148,4,46,5,5,19,34,8,25,0,86,88,0,5388,0,6,0,0,5,5,10,8,11,7,20,14
101,"1","met",2,"response_response",152,4,47,5,1,23,30,15,15,0,83,81,0,7592,0,6,0,0,5,5,10,8,11,7,21,14
101,"1","met",2,"response_response",155,4,48,5,2,16,25,16,19,0,76,76,1,4249,0,6,0,0,5,5,10,8,11,7,22,15
101,"1","met",2,"response_response",158,4,49,5,3,28,25,31,22,0,106,106,1,4260,0,6,0,0,5,5,10,8,11,7,23,16
101,"1","met",2,"response_response",161,4,50,5,4,27,27,17,32,0,103,103,1,5127,0,6,0,0,5,5,10,8,11,7,24,17
62,"2","met",2,"response_response",4,4,1,2,1,4,8,9,4,0,25,25,1,5804,0,1,0,0,1,1,0,0,0,0,0,0
62,"2","met",2,"response_response",7,4,2,2,2,5,7,7,7,0,26,26,1,3715,0,1,0,0,2,2,0,0,0,0,0,0
62,"2","met",2,"response_response",10,4,3,2,3,3,6,6,4,0,19,19,1,2780,0,1,0,0,3,3,0,0,0,0,0,0
62,"2","met",2,"response_response",13,4,4,2,4,4,5,3,9,0,21,21,1,3726,0,1,0,0,4,4,0,0,0,0,0,0
62,"2","met",2,"response_response",16,4,5,2,5,9,6,4,5,0,24,24,1,2955,0,1,0,0,5,5,0,0,0,0,0,0
62,"2","met",2,"response_response",20,4,6,3,1,7,9,10,13,0,39,39,1,3520,0,2,0,0,5,5,1,1,0,0,0,0
62,"2","met",2,"response_response",23,4,7,3,2,7,7,11,8,0,33,33,1,7891,0,2,0,0,5,5,2,2,0,0,0,0
62,"2","met",2,"response_response",26,4,8,3,3,12,13,7,10,0,42,42,1,5088,0,2,0,0,5,5,3,3,0,0,0,0
62,"2","met",2,"response_response",29,4,9,3,4,11,10,10,14,0,45,45,1,2468,0,2,0,0,5,5,4,4,0,0,0,0
62,"2","met",2,"response_response",32,4,10,3,5,11,13,9,10,0,43,43,1,2876,0,2,0,0,5,5,5,5,0,0,0,0
62,"2","met",2,"response_response",36,4,11,4,1,12,18,20,15,0,65,65,1,3093,0,3,0,0,5,5,5,5,1,1,0,0
62,"2","met",2,"response_response",39,4,12,4,2,25,19,10,8,0,62,62,1,9625,0,3,0,0,5,5,5,5,2,2,0,0
62,"2","met",2,"response_response",42,4,13,4,3,13,11,23,20,0,67,67,1,5025,0,3,0,0,5,5,5,5,3,3,0,0
62,"2","met",2,"response_response",45,4,14,4,4,16,23,21,11,0,71,71,1,4984,0,3,0,0,5,5,5,5,4,4,0,0
62,"2","met",2,"response_response",48,4,15,4,5,10,24,9,21,0,64,64,1,5173,0,3,0,0,5,5,5,5,5,5,0,0
62,"2","met",2,"response_response",52,4,16,3,1,8,7,13,14,0,42,42,1,9369,0,4,0,0,5,5,6,6,5,5,0,0
62,"2","met",2,"response_response",55,4,17,3,2,7,8,11,13,0,39,39,1,3643,0,4,0,0,5,5,7,7,5,5,0,0
62,"2","met",2,"response_response",58,4,18,3,3,11,13,7,15,0,46,46,1,3228,0,4,0,0,5,5,8,8,5,5,0,0
62,"2","met",2,"response_response",61,4,19,3,4,10,11,12,9,0,42,42,1,5863,0,4,0,0,5,5,9,9,5,5,0,0
62,"2","met",2,"response_response",64,4,20,3,5,15,11,9,8,0,43,43,1,5262,0,4,0,0,5,5,10,10,5,5,0,0
62,"2","met",2,"response_response",68,4,21,3,1,9,10,14,10,0,43,43,1,4257,0,4,0,0,5,5,11,11,5,5,0,0
62,"2","met",2,"response_response",71,4,22,3,2,13,10,14,8,0,45,45,1,2301,0,4,0,0,5,5,12,12,5,5,0,0
62,"2","met",2,"response_response",74,4,23,3,3,9,13,14,7,0,43,43,1,3039,0,4,0,0,5,5,13,13,5,5,0,0
62,"2","met",2,"response_response",77,4,24,3,4,13,12,12,10,0,47,47,1,5480,0,4,0,0,5,5,14,14,5,5,0,0
62,"2","met",2,"response_response",80,4,25,3,5,14,15,15,8,0,52,54,0,6587,0,4,0,0,5,5,15,14,5,5,0,0
62,"2","met",2,"response_response",84,4,26,4,1,9,10,20,15,0,54,54,1,3897,0,5,0,0,5,5,15,14,6,6,0,0
62,"2","met",2,"response_response",87,4,27,4,2,10,8,9,21,0,48,48,1,4654,0,5,0,0,5,5,15,14,7,7,0,0
62,"2","met",2,"response_response",90,4,28,4,3,19,23,25,20,0,87,74,0,10300,0,5,0,0,5,5,15,14,8,7,0,0
62,"2","met",2,"response_response",93,4,29,4,4,17,15,25,13,0,70,70,1,9798,0,5,0,0,5,5,15,14,9,8,0,0
62,"2","met",2,"response_response",96,4,30,4,5,13,20,16,19,0,68,68,1,7102,0,5,0,0,5,5,15,14,10,9,0,0
62,"2","met",2,"response_response",100,4,31,2,1,4,9,3,6,0,22,19,0,2501,0,6,0,0,6,5,15,14,10,9,0,0
62,"2","met",2,"response_response",103,4,32,2,2,6,5,4,3,0,18,18,1,2625,0,6,0,0,7,6,15,14,10,9,0,0
62,"2","met",2,"response_response",106,4,33,2,3,7,8,4,3,0,22,22,1,4075,0,6,0,0,8,7,15,14,10,9,0,0
62,"2","met",2,"response_response",109,4,34,2,4,5,9,3,8,0,25,25,1,2938,0,6,0,0,9,8,15,14,10,9,0,0
62,"2","met",2,"response_response",112,4,35,2,5,4,4,8,7,0,23,23,1,4672,0,6,0,0,10,9,15,14,10,9,0,0
62,"2","met",2,"response_response",116,4,36,5,1,26,7,28,24,0,85,85,1,9344,0,7,0,0,10,9,15,14,10,9,1,1
62,"2","met",2,"response_response",119,4,37,5,2,21,17,35,24,0,97,77,0,9105,0,7,0,0,10,9,15,14,10,9,2,1
62,"2","met",2,"response_response",122,4,38,5,3,28,34,31,14,0,107,76,0,10300,0,7,0,0,10,9,15,14,10,9,3,1
62,"2","met",2,"response_response",125,4,39,5,4,34,23,23,11,0,91,81,0,10273,0,7,0,0,10,9,15,14,10,9,4,1
62,"2","met",2,"response_response",128,4,40,5,5,25,7,33,27,0,92,92,1,8941,0,7,0,0,10,9,15,14,10,9,5,2
62,"2","met",2,"response_response",132,4,41,3,1,10,7,14,9,0,40,40,1,5646,0,8,0,0,10,9,16,15,10,9,5,2
62,"2","met",2,"response_response",135,4,42,3,2,14,14,13,12,0,53,52,0,9475,0,8,0,0,10,9,17,15,10,9,5,2
62,"2","met",2,"response_response",138,4,43,3,3,10,11,15,13,0,49,49,1,3047,0,8,0,0,10,9,18,16,10,9,5,2
62,"2","met",2,"response_response",141,4,44,3,4,11,11,13,11,0,46,46,1,4672,0,8,0,0,10,9,19,17,10,9,5,2
62,"2","met",2,"response_response",144,4,45,3,5,15,8,9,10,0,42,41,0,2745,0,8,0,0,10,9,20,17,10,9,5,2
62,"2","met",2,"response_response",148,4,46,3,1,8,7,7,14,0,36,36,1,3416,0,8,0,0,10,9,21,18,10,9,5,2
62,"2","met",2,"response_response",151,4,47,3,2,13,14,13,14,0,54,54,1,3859,0,8,0,0,10,9,22,19,10,9,5,2
62,"2","met",2,"response_response",154,4,48,3,3,15,13,7,9,0,44,44,1,4571,0,8,0,0,10,9,23,20,10,9,5,2
62,"2","met",2,"response_response",157,4,49,3,4,8,9,13,11,0,41,41,1,2371,0,8,0,0,10,9,24,21,10,9,5,2
62,"2","met",2,"response_response",160,4,50,3,5,15,12,11,10,0,48,49,0,2467,0,8,0,0,10,9,25,21,10,9,5,2
68,"1","met",2,"response_response",4,4,1,3,1,10,8,14,12,0,44,32,0,5326,0,1,0,0,0,0,1,0,0,0,0,0
68,"1","met",2,"response_response",7,4,2,3,2,13,8,14,14,0,49,49,1,4120,0,1,0,0,0,0,2,1,0,0,0,0
68,"1","met",2,"response_response",10,4,3,3,3,7,8,14,12,0,41,41,1,6744,0,1,0,0,0,0,3,2,0,0,0,0
68,"1","met",2,"response_response",13,4,4,3,4,9,14,15,12,0,50,50,1,5176,0,1,0,0,0,0,4,3,0,0,0,0
68,"1","met",2,"response_response",16,4,5,3,5,7,11,9,12,0,39,38,0,8660,0,1,0,0,0,0,5,3,0,0,0,0
68,"1","met",2,"response_response",20,4,6,2,1,8,9,5,9,0,31,31,1,8592,0,2,0,0,1,1,5,3,0,0,0,0
68,"1","met",2,"response_response",23,4,7,2,2,8,3,6,6,0,23,23,1,4273,1,2,0,0,2,2,5,3,0,0,0,0
68,"1","met",2,"response_response",27,4,8,3,1,11,9,15,12,0,47,47,1,5108,0,3,0,0,2,2,6,4,0,0,0,0
68,"1","met",2,"response_response",30,4,9,3,2,11,14,10,8,0,43,43,1,4916,0,3,0,0,2,2,7,5,0,0,0,0
68,"1","met",2,"response_response",33,4,10,3,3,10,13,8,9,0,40,40,1,3132,0,3,0,0,2,2,8,6,0,0,0,0
68,"1","met",2,"response_response",36,4,11,3,4,13,14,9,7,0,43,43,1,6278,0,3,0,0,2,2,9,7,0,0,0,0
68,"1","met",2,"response_response",39,4,12,3,5,14,9,8,7,0,38,38,1,2737,0,3,0,0,2,2,10,8,0,0,0,0
68,"1","met",2,"response_response",43,4,13,4,1,18,7,10,14,0,49,49,1,3865,0,4,0,0,2,2,10,8,1,1,0,0
68,"1","met",2,"response_response",46,4,14,4,2,17,16,25,22,0,80,NA,0,10300,0,4,0,0,2,2,10,8,2,1,0,0
68,"1","met",2,"response_response",49,4,15,4,3,25,8,10,25,0,68,68,1,5417,0,4,0,0,2,2,10,8,3,2,0,0
68,"1","met",2,"response_response",52,4,16,4,4,25,25,16,16,0,82,82,1,5214,0,4,0,0,2,2,10,8,4,3,0,0
68,"1","met",2,"response_response",55,4,17,4,5,16,19,23,13,0,71,58,0,10300,0,4,0,0,2,2,10,8,5,3,0,0
68,"1","met",2,"response_response",59,4,18,3,1,7,8,7,7,0,29,29,1,3508,0,5,0,0,2,2,11,9,5,3,0,0
68,"1","met",2,"response_response",62,4,19,3,2,8,10,10,13,0,41,41,1,5251,1,5,0,0,2,2,12,10,5,3,0,0
68,"1","met",2,"response_response",66,4,20,5,1,9,15,29,21,0,74,50,0,5533,1,6,0,0,2,2,12,10,5,3,1,0
68,"1","met",2,"response_response",70,4,21,4,1,23,13,11,11,0,58,58,1,4501,0,7,0,0,2,2,12,10,6,4,1,0
68,"1","met",2,"response_response",73,4,22,4,2,20,23,20,21,0,84,84,1,4275,0,7,0,0,2,2,12,10,7,5,1,0
68,"1","met",2,"response_response",76,4,23,4,3,15,11,17,15,0,58,58,1,5239,0,7,0,0,2,2,12,10,8,6,1,0
68,"1","met",2,"response_response",79,4,24,4,4,14,13,13,12,0,52,52,1,6185,0,7,0,0,2,2,12,10,9,7,1,0
68,"1","met",2,"response_response",82,4,25,4,5,9,18,13,24,0,64,64,1,4265,0,7,0,0,2,2,12,10,10,8,1,0
68,"1","met",2,"response_response",86,4,26,4,1,7,12,17,20,0,56,66,0,6223,0,7,0,0,2,2,12,10,11,8,1,0
68,"1","met",2,"response_response",89,4,27,4,2,9,21,10,14,0,54,54,1,2515,0,7,0,0,2,2,12,10,12,9,1,0
68,"1","met",2,"response_response",92,4,28,4,3,11,16,9,17,0,53,53,1,6356,0,7,0,0,2,2,12,10,13,10,1,0
68,"1","met",2,"response_response",95,4,29,4,4,24,11,24,19,0,78,78,1,10300,0,7,0,0,2,2,12,10,14,11,1,0
68,"1","met",2,"response_response",98,4,30,4,5,13,11,19,16,0,59,59,1,6564,0,7,0,0,2,2,12,10,15,12,1,0
68,"1","met",2,"response_response",102,4,31,3,1,14,7,8,10,0,39,39,1,2625,0,8,0,0,2,2,13,11,15,12,1,0
68,"1","met",2,"response_response",105,4,32,3,2,11,12,12,12,0,47,47,1,5577,0,8,0,0,2,2,14,12,15,12,1,0
68,"1","met",2,"response_response",108,4,33,3,3,15,15,11,9,0,50,50,1,3832,0,8,0,0,2,2,15,13,15,12,1,0
68,"1","met",2,"response_response",111,4,34,3,4,12,13,14,8,0,47,47,1,6222,0,8,0,0,2,2,16,14,15,12,1,0
68,"1","met",2,"response_response",114,4,35,3,5,7,9,15,10,0,41,41,1,4591,0,8,0,0,2,2,17,15,15,12,1,0
68,"1","met",2,"response_response",118,4,36,4,1,12,12,18,9,0,51,51,1,7082,0,9,0,0,2,2,17,15,16,13,1,0
68,"1","met",2,"response_response",121,4,37,4,2,11,8,14,10,0,43,44,0,7147,0,9,0,0,2,2,17,15,17,13,1,0
68,"1","met",2,"response_response",124,4,38,4,3,8,10,11,13,0,42,42,1,5308,0,9,0,0,2,2,17,15,18,14,1,0
68,"1","met",2,"response_response",127,4,39,4,4,10,25,20,12,0,67,67,1,6639,0,9,0,0,2,2,17,15,19,15,1,0
68,"1","met",2,"response_response",130,4,40,4,5,15,22,25,11,0,73,73,1,7190,0,9,0,0,2,2,17,15,20,16,1,0
68,"1","met",2,"response_response",134,4,41,3,1,11,9,14,15,0,49,49,1,3819,0,10,0,0,2,2,18,16,20,16,1,0
68,"1","met",2,"response_response",137,4,42,3,2,8,15,10,13,0,46,46,1,3359,0,10,0,0,2,2,19,17,20,16,1,0
68,"1","met",2,"response_response",140,4,43,3,3,12,14,11,8,0,45,45,1,5390,1,10,0,0,2,2,20,18,20,16,1,0
68,"1","met",2,"response_response",144,4,44,5,1,22,11,17,30,0,80,80,1,3236,0,11,0,0,2,2,20,18,20,16,2,1
68,"1","met",2,"response_response",147,4,45,5,2,28,10,16,31,0,85,79,0,10300,0,11,0,0,2,2,20,18,20,16,3,1
68,"1","met",2,"response_response",150,4,46,5,3,12,16,25,16,0,69,57,0,10300,0,11,0,0,2,2,20,18,20,16,4,1
68,"1","met",2,"response_response",153,4,47,5,4,7,9,29,26,0,71,68,0,10300,0,11,0,0,2,2,20,18,20,16,5,1
68,"1","met",2,"response_response",156,4,48,5,5,34,32,14,22,0,102,102,1,8420,0,11,0,0,2,2,20,18,20,16,6,2
68,"1","met",2,"response_response",160,4,49,3,1,12,13,8,11,0,44,44,1,4756,0,12,0,0,2,2,21,19,20,16,6,2
68,"1","met",2,"response_response",163,4,50,3,2,14,8,9,7,0,38,38,1,2477,0,12,0,0,2,2,22,20,20,16,6,2
99,"1","met",2,"response_response",4,4,1,4,1,21,10,12,17,0,60,60,1,8384,0,1,0,0,0,0,0,0,1,1,0,0
99,"1","met",2,"response_response",7,4,2,4,2,12,13,22,15,0,62,62,1,10300,0,1,0,0,0,0,0,0,2,2,0,0
99,"1","met",2,"response_response",10,4,3,4,3,21,24,9,19,0,73,NA,0,10300,0,1,0,0,0,0,0,0,3,2,0,0
99,"1","met",2,"response_response",13,4,4,4,4,16,16,24,16,0,72,66,0,8031,1,1,0,0,0,0,0,0,4,2,0,0
99,"1","met",2,"response_response",17,4,5,3,1,9,7,7,13,0,36,36,1,10300,0,2,0,0,0,0,1,1,4,2,0,0
99,"1","met",2,"response_response",20,4,6,3,2,7,11,15,12,0,45,45,1,7712,0,2,0,0,0,0,2,2,4,2,0,0
99,"1","met",2,"response_response",23,4,7,3,3,8,12,15,15,0,50,50,1,4440,0,2,0,0,0,0,3,3,4,2,0,0
99,"1","met",2,"response_response",26,4,8,3,4,8,14,9,15,0,46,46,1,3852,0,2,0,0,0,0,4,4,4,2,0,0
99,"1","met",2,"response_response",29,4,9,3,5,13,12,7,10,0,42,42,1,3268,0,2,0,0,0,0,5,5,4,2,0,0
99,"1","met",2,"response_response",33,4,10,4,1,7,10,17,17,0,51,51,1,5422,0,3,0,0,0,0,5,5,5,3,0,0
99,"1","met",2,"response_response",36,4,11,4,2,19,14,22,20,0,75,75,1,6297,0,3,0,0,0,0,5,5,6,4,0,0
99,"1","met",2,"response_response",39,4,12,4,3,24,15,23,23,0,85,85,1,10300,0,3,0,0,0,0,5,5,7,5,0,0
99,"1","met",2,"response_response",42,4,13,4,4,15,13,17,8,0,53,53,1,7561,0,3,0,0,0,0,5,5,8,6,0,0
99,"1","met",2,"response_response",45,4,14,4,5,17,23,9,21,0,70,70,1,8110,0,3,0,0,0,0,5,5,9,7,0,0
99,"1","met",2,"response_response",49,4,15,4,1,15,20,17,14,0,66,72,0,6785,0,3,0,0,0,0,5,5,10,7,0,0
99,"1","met",2,"response_response",52,4,16,4,2,7,11,8,8,0,34,34,1,4114,0,3,0,0,0,0,5,5,11,8,0,0
99,"1","met",2,"response_response",55,4,17,4,3,15,11,14,18,0,58,58,1,7134,0,3,0,0,0,0,5,5,12,9,0,0
99,"1","met",2,"response_response",58,4,18,4,4,16,15,22,23,0,76,76,1,6335,0,3,0,0,0,0,5,5,13,10,0,0
99,"1","met",2,"response_response",61,4,19,4,5,25,22,12,15,0,74,74,1,7979,0,3,0,0,0,0,5,5,14,11,0,0
99,"1","met",2,"response_response",65,4,20,4,1,14,10,18,22,0,64,64,1,5854,0,3,0,0,0,0,5,5,15,12,0,0
99,"1","met",2,"response_response",68,4,21,4,2,17,19,18,12,0,66,76,0,5714,0,3,0,0,0,0,5,5,16,12,0,0
99,"1","met",2,"response_response",71,4,22,4,3,25,24,11,22,0,82,82,1,3858,0,3,0,0,0,0,5,5,17,13,0,0
99,"1","met",2,"response_response",74,4,23,4,4,10,10,8,7,0,35,35,1,3017,0,3,0,0,0,0,5,5,18,14,0,0
99,"1","met",2,"response_response",77,4,24,4,5,25,25,14,13,0,77,77,1,3599,0,3,0,0,0,0,5,5,19,15,0,0
99,"1","met",2,"response_response",81,4,25,5,1,31,11,35,25,0,102,102,1,7129,0,4,0,0,0,0,5,5,19,15,1,1
99,"1","met",2,"response_response",84,4,26,5,2,8,7,31,14,0,60,60,1,8913,0,4,0,0,0,0,5,5,19,15,2,2
99,"1","met",2,"response_response",87,4,27,5,3,33,27,13,28,0,101,101,1,5442,0,4,0,0,0,0,5,5,19,15,3,3
99,"1","met",2,"response_response",90,4,28,5,4,33,20,9,23,0,85,84,0,6635,0,4,0,0,0,0,5,5,19,15,4,3
99,"1","met",2,"response_response",93,4,29,5,5,34,18,22,12,0,86,86,1,5403,0,4,0,0,0,0,5,5,19,15,5,4
99,"1","met",2,"response_response",97,4,30,5,1,20,21,13,18,0,72,72,1,5896,0,4,0,0,0,0,5,5,19,15,6,5
99,"1","met",2,"response_response",100,4,31,5,2,12,33,12,7,0,64,64,1,6407,0,4,0,0,0,0,5,5,19,15,7,6
99,"1","met",2,"response_response",103,4,32,5,3,30,17,24,14,0,85,78,0,10300,0,4,0,0,0,0,5,5,19,15,8,6
99,"1","met",2,"response_response",106,4,33,5,4,26,29,24,13,0,92,81,0,6719,0,4,0,0,0,0,5,5,19,15,9,6
99,"1","met",2,"response_response",109,4,34,5,5,24,26,9,32,0,91,91,1,6371,0,4,0,0,0,0,5,5,19,15,10,7
99,"1","met",2,"response_response",113,4,35,4,1,13,24,23,7,0,67,67,1,7205,0,5,0,0,0,0,5,5,20,16,10,7
99,"1","met",2,"response_response",116,4,36,4,2,7,8,15,8,0,38,38,1,4274,0,5,0,0,0,0,5,5,21,17,10,7
99,"1","met",2,"response_response",119,4,37,4,3,13,18,24,23,0,78,78,1,6263,0,5,0,0,0,0,5,5,22,18,10,7
99,"1","met",2,"response_response",122,4,38,4,4,15,12,16,8,0,51,61,0,9655,0,5,0,0,0,0,5,5,23,18,10,7
99,"1","met",2,"response_response",125,4,39,4,5,12,18,21,9,0,60,60,1,3270,0,5,0,0,0,0,5,5,24,19,10,7
99,"1","met",2,"response_response",129,4,40,4,1,14,16,16,14,0,60,60,1,5251,0,5,0,0,0,0,5,5,25,20,10,7
99,"1","met",2,"response_response",132,4,41,4,2,25,25,14,24,0,88,88,1,5462,0,5,0,0,0,0,5,5,26,21,10,7
99,"1","met",2,"response_response",135,4,42,4,3,22,13,13,15,0,63,63,1,7296,0,5,0,0,0,0,5,5,27,22,10,7
99,"1","met",2,"response_response",138,4,43,4,4,12,18,24,17,0,71,71,1,4971,0,5,0,0,0,0,5,5,28,23,10,7
99,"1","met",2,"response_response",141,4,44,4,5,9,25,25,15,0,74,74,1,6855,0,5,0,0,0,0,5,5,29,24,10,7
99,"1","met",2,"response_response",145,4,45,4,1,12,21,8,9,0,50,50,1,2839,0,5,0,0,0,0,5,5,30,25,10,7
99,"1","met",2,"response_response",148,4,46,4,2,7,12,22,12,0,53,53,1,5899,0,5,0,0,0,0,5,5,31,26,10,7
99,"1","met",2,"response_response",151,4,47,4,3,17,11,24,12,0,64,64,1,10282,0,5,0,0,0,0,5,5,32,27,10,7
99,"1","met",2,"response_response",154,4,48,4,4,12,20,12,17,0,61,61,1,4356,0,5,0,0,0,0,5,5,33,28,10,7
99,"1","met",2,"response_response",157,4,49,4,5,9,24,15,11,0,59,59,1,3728,0,5,0,0,0,0,5,5,34,29,10,7
99,"1","met",2,"response_response",161,4,50,5,1,24,28,17,27,0,96,96,1,8510,0,6,0,0,0,0,5,5,34,29,11,8
21,"1","met",2,"response_response",4,4,1,3,1,7,11,8,8,0,34,34,1,4954,0,1,0,0,0,0,1,1,0,0,0,0
21,"1","met",2,"response_response",7,4,2,3,2,13,7,14,10,0,44,44,1,3842,1,1,0,0,0,0,2,2,0,0,0,0
21,"1","met",2,"response_response",11,4,3,4,1,19,13,20,20,0,72,62,0,2798,0,2,0,0,0,0,2,2,1,0,0,0
21,"1","met",2,"response_response",14,4,4,4,2,10,7,24,18,0,59,61,0,9916,0,2,0,0,0,0,2,2,2,0,0,0
21,"1","met",2,"response_response",17,4,5,4,3,22,18,12,17,0,69,69,1,3272,0,2,0,0,0,0,2,2,3,1,0,0
21,"1","met",2,"response_response",20,4,6,4,4,9,9,9,12,0,39,39,1,6666,1,2,0,0,0,0,2,2,4,2,0,0
21,"1","met",2,"response_response",24,4,7,5,1,16,25,13,11,0,65,65,1,10300,0,3,0,0,0,0,2,2,4,2,1,1
21,"1","met",2,"response_response",27,4,8,5,2,29,25,13,31,0,98,96,0,9018,1,3,0,0,0,0,2,2,4,2,2,1
21,"1","met",2,"response_response",31,4,9,4,1,18,9,15,15,0,57,57,1,4301,0,4,0,0,0,0,2,2,5,3,2,1
21,"1","met",2,"response_response",34,4,10,4,2,10,16,25,21,0,72,72,1,4097,0,4,0,0,0,0,2,2,6,4,2,1
21,"1","met",2,"response_response",37,4,11,4,3,9,12,25,7,0,53,53,1,6021,0,4,0,0,0,0,2,2,7,5,2,1
21,"1","met",2,"response_response",40,4,12,4,4,24,23,8,7,0,62,62,1,9720,0,4,0,0,0,0,2,2,8,6,2,1
21,"1","met",2,"response_response",43,4,13,4,5,16,22,18,17,0,73,73,1,9166,0,4,0,0,0,0,2,2,9,7,2,1
21,"1","met",2,"response_response",47,4,14,4,1,16,12,18,9,0,55,6,0,10300,0,4,0,0,0,0,2,2,10,7,2,1
21,"1","met",2,"response_response",50,4,15,4,2,19,10,11,19,0,59,59,1,6018,0,4,0,0,0,0,2,2,11,8,2,1
21,"1","met",2,"response_response",53,4,16,4,3,10,13,14,24,0,61,41,0,7838,0,4,0,0,0,0,2,2,12,8,2,1
21,"1","met",2,"response_response",56,4,17,4,4,20,14,17,16,0,67,67,1,5968,0,4,0,0,0,0,2,2,13,9,2,1
21,"1","met",2,"response_response",59,4,18,4,5,21,13,18,8,0,60,NA,0,10300,0,4,0,0,0,0,2,2,14,9,2,1
21,"1","met",2,"response_response",63,4,19,3,1,13,10,13,7,0,43,43,1,6875,0,5,0,0,0,0,3,3,14,9,2,1
21,"1","met",2,"response_response",66,4,20,3,2,14,15,14,9,0,52,52,1,5981,0,5,0,0,0,0,4,4,14,9,2,1
21,"1","met",2,"response_response",69,4,21,3,3,14,7,13,9,0,43,43,1,4800,0,5,0,0,0,0,5,5,14,9,2,1
21,"1","met",2,"response_response",72,4,22,3,4,15,10,11,10,0,46,46,1,6564,0,5,0,0,0,0,6,6,14,9,2,1
21,"1","met",2,"response_response",75,4,23,3,5,12,10,12,14,0,48,44,0,5286,0,5,0,0,0,0,7,6,14,9,2,1
21,"1","met",2,"response_response",79,4,24,4,1,7,15,22,10,0,54,54,1,9252,0,6,0,0,0,0,7,6,15,10,2,1
21,"1","met",2,"response_response",82,4,25,4,2,9,16,12,18,0,55,55,1,5251,0,6,0,0,0,0,7,6,16,11,2,1
21,"1","met",2,"response_response",85,4,26,4,3,25,13,24,19,0,81,NA,0,10300,1,6,0,0,0,0,7,6,17,11,2,1
21,"1","met",2,"response_response",89,4,27,3,1,12,11,13,8,0,44,44,1,6820,0,7,0,0,0,0,8,7,17,11,2,1
21,"1","met",2,"response_response",92,4,28,3,2,9,15,15,15,0,54,54,1,5332,0,7,0,0,0,0,9,8,17,11,2,1
21,"1","met",2,"response_response",95,4,29,3,3,9,10,7,12,0,38,37,0,7368,0,7,0,0,0,0,10,8,17,11,2,1
21,"1","met",2,"response_response",98,4,30,3,4,14,8,14,9,0,45,45,1,5404,0,7,0,0,0,0,11,9,17,11,2,1
21,"1","met",2,"response_response",101,4,31,3,5,14,8,13,10,0,45,45,1,3301,0,7,0,0,0,0,12,10,17,11,2,1
21,"1","met",2,"response_response",105,4,32,4,1,7,9,8,14,0,38,34,0,4372,0,8,0,0,0,0,12,10,18,11,2,1
21,"1","met",2,"response_response",108,4,33,4,2,16,12,13,9,0,50,35,0,4478,0,8,0,0,0,0,12,10,19,11,2,1
21,"1","met",2,"response_response",111,4,34,4,3,10,15,25,17,0,67,67,1,3454,0,8,0,0,0,0,12,10,20,12,2,1
21,"1","met",2,"response_response",114,4,35,4,4,22,20,12,14,0,68,68,1,4244,0,8,0,0,0,0,12,10,21,13,2,1
21,"1","met",2,"response_response",117,4,36,4,5,15,22,25,20,0,82,75,0,8265,0,8,0,0,0,0,12,10,22,13,2,1
21,"1","met",2,"response_response",121,4,37,4,1,15,25,18,19,0,77,87,0,9358,0,8,0,0,0,0,12,10,23,13,2,1
21,"1","met",2,"response_response",124,4,38,4,2,9,19,18,11,0,57,47,0,7098,1,8,0,0,0,0,12,10,24,13,2,1
21,"1","met",2,"response_response",128,4,39,3,1,12,11,15,15,0,53,53,1,6031,0,9,0,0,0,0,13,11,24,13,2,1
21,"1","met",2,"response_response",131,4,40,3,2,9,13,9,9,0,40,40,1,5558,0,9,0,0,0,0,14,12,24,13,2,1
21,"1","met",2,"response_response",134,4,41,3,3,10,14,8,9,0,41,41,1,3079,1,9,0,0,0,0,15,13,24,13,2,1
21,"1","met",2,"response_response",138,4,42,5,1,27,10,10,31,0,78,78,1,5755,0,10,0,0,0,0,15,13,24,13,3,2
21,"1","met",2,"response_response",141,4,43,5,2,12,28,14,30,0,84,84,1,2878,0,10,0,0,0,0,15,13,24,13,4,3
21,"1","met",2,"response_response",144,4,44,5,3,10,25,27,9,0,71,71,1,8033,0,10,0,0,0,0,15,13,24,13,5,4
21,"1","met",2,"response_response",147,4,45,5,4,13,23,23,7,0,66,66,1,4618,0,10,0,0,0,0,15,13,24,13,6,5
21,"1","met",2,"response_response",150,4,46,5,5,12,15,34,35,0,96,86,0,9547,0,10,0,0,0,0,15,13,24,13,7,5
21,"1","met",2,"response_response",154,4,47,5,1,25,32,16,9,0,82,75,0,8548,0,10,0,0,0,0,15,13,24,13,8,5
21,"1","met",2,"response_response",157,4,48,5,2,24,10,9,30,0,73,73,1,6399,0,10,0,0,0,0,15,13,24,13,9,6
21,"1","met",2,"response_response",160,4,49,5,3,14,31,7,12,0,64,64,1,4685,0,10,0,0,0,0,15,13,24,13,10,7
21,"1","met",2,"response_response",163,4,50,5,4,28,32,34,29,0,123,123,1,7905,0,10,0,0,0,0,15,13,24,13,11,8
